debugJ82PY0:debugMX4MY8,0,1542862056234,"{""phase1_counterbalance"": 1, ""trial_type"": ""fullscreen"", ""success"": true, ""sequence"": 5, ""internal_node_id"": ""0.0-0.0"", ""time_elapsed"": 58951, ""condition"": ""1"", ""uniqueId"": ""debugJ82PY0:debugMX4MY8"", ""phase2_counterbalance"": 0, ""trial_index"": 0}"
debugJ82PY0:debugMX4MY8,1,1542862136695,"{""rt"": 80456, ""trial_type"": ""instructions"", ""view_history"": ""[{\""page_index\"":0,\""viewing_time\"":66077},{\""page_index\"":1,\""viewing_time\"":14378}]"", ""sequence"": 5, ""phase1_counterbalance"": 1, ""internal_node_id"": ""0.0-1.0"", ""time_elapsed"": 139414, ""condition"": ""1"", ""uniqueId"": ""debugJ82PY0:debugMX4MY8"", ""phase2_counterbalance"": 0, ""trial_index"": 1}"
debugJ82PY0:debugMX4MY8,2,1542862140782,"{""rt"": -1, ""trial_type"": ""dotmotion"", ""task"": ""motion"", ""phase2_counterbalance"": 0, ""sequence"": 5, ""trial_duration"": 3000, ""phase1_counterbalance"": 1, ""internal_node_id"": ""0.0-2.0-0.0"", ""correct_choice"": ""l"", ""choices"": [""a"", ""l""], ""time_elapsed"": 143500, ""fill_ITT"": true, ""key_press"": -1, ""condition"": ""1"", ""uniqueId"": ""debugJ82PY0:debugMX4MY8"", ""response_ends_trial"": true, ""correct"": false, ""trial_index"": 2}"
debugJ82PY0:debugMX4MY8,3,1542862150083,"{""rt"": 8795, ""trial_type"": ""instructions"", ""view_history"": ""[{\""page_index\"":0,\""viewing_time\"":8794}]"", ""sequence"": 5, ""phase1_counterbalance"": 1, ""internal_node_id"": ""0.0-3.0"", ""time_elapsed"": 152802, ""condition"": ""1"", ""uniqueId"": ""debugJ82PY0:debugMX4MY8"", ""phase2_counterbalance"": 0, ""trial_index"": 3}"
debugJ82PY0:debugMX4MY8,4,1542862172878,"{""rt"": 21789, ""trial_type"": ""instructions"", ""view_history"": ""[{\""page_index\"":0,\""viewing_time\"":21788}]"", ""sequence"": 5, ""phase1_counterbalance"": 1, ""internal_node_id"": ""0.0-4.0"", ""time_elapsed"": 175597, ""condition"": ""1"", ""uniqueId"": ""debugJ82PY0:debugMX4MY8"", ""phase2_counterbalance"": 0, ""trial_index"": 4}"
debugJ82PY0:debugMX4MY8,5,1542862176962,"{""rt"": -1, ""trial_type"": ""dotmotion"", ""task"": ""color"", ""phase2_counterbalance"": 0, ""sequence"": 5, ""trial_duration"": 3000, ""phase1_counterbalance"": 1, ""internal_node_id"": ""0.0-5.0-0.0"", ""correct_choice"": ""l"", ""choices"": [""a"", ""l""], ""time_elapsed"": 179681, ""fill_ITT"": true, ""key_press"": -1, ""condition"": ""1"", ""uniqueId"": ""debugJ82PY0:debugMX4MY8"", ""response_ends_trial"": true, ""correct"": false, ""trial_index"": 5}"
debugJ82PY0:debugMX4MY8,6,1542862180485,"{""rt"": -1, ""trial_type"": ""dotmotion"", ""task"": ""color"", ""phase2_counterbalance"": 0, ""sequence"": 5, ""trial_duration"": 3000, ""phase1_counterbalance"": 1, ""internal_node_id"": ""0.0-6.0-0.0"", ""correct_choice"": ""a"", ""choices"": [""a"", ""l""], ""time_elapsed"": 183203, ""fill_ITT"": true, ""key_press"": -1, ""condition"": ""1"", ""uniqueId"": ""debugJ82PY0:debugMX4MY8"", ""response_ends_trial"": true, ""correct"": false, ""trial_index"": 6}"
debugJ82PY0:debugMX4MY8,7,1542862183998,"{""rt"": -1, ""trial_type"": ""dotmotion"", ""task"": ""color"", ""phase2_counterbalance"": 0, ""sequence"": 5, ""trial_duration"": 3000, ""phase1_counterbalance"": 1, ""internal_node_id"": ""0.0-7.0-0.0"", ""correct_choice"": ""l"", ""choices"": [""a"", ""l""], ""time_elapsed"": 186717, ""fill_ITT"": true, ""key_press"": -1, ""condition"": ""1"", ""uniqueId"": ""debugJ82PY0:debugMX4MY8"", ""response_ends_trial"": true, ""correct"": false, ""trial_index"": 7}"
debugJ82PY0:debugMX4MY8,8,1542862187653,"{""rt"": -1, ""trial_type"": ""dotmotion"", ""task"": ""color"", ""phase2_counterbalance"": 0, ""sequence"": 5, ""trial_duration"": 3000, ""phase1_counterbalance"": 1, ""internal_node_id"": ""0.0-8.0-0.0"", ""correct_choice"": ""a"", ""choices"": [""a"", ""l""], ""time_elapsed"": 190372, ""fill_ITT"": true, ""key_press"": -1, ""condition"": ""1"", ""uniqueId"": ""debugJ82PY0:debugMX4MY8"", ""response_ends_trial"": true, ""correct"": false, ""trial_index"": 8}"
debugJ82PY0:debugMX4MY8,9,1542862215469,"{""rt"": 27309, ""trial_type"": ""instructions"", ""view_history"": ""[{\""page_index\"":0,\""viewing_time\"":27308}]"", ""sequence"": 5, ""phase1_counterbalance"": 1, ""internal_node_id"": ""0.0-9.0"", ""time_elapsed"": 218188, ""condition"": ""1"", ""uniqueId"": ""debugJ82PY0:debugMX4MY8"", ""phase2_counterbalance"": 0, ""trial_index"": 9}"
debugJ82PY0:debugMX4MY8,10,1542862217687,"{""rt"": 1160.0000000034925, ""trial_type"": ""dotmotion"", ""task"": ""motion"", ""phase2_counterbalance"": 0, ""sequence"": 5, ""trial_duration"": 3000, ""phase1_counterbalance"": 1, ""internal_node_id"": ""0.0-10.0-0.0"", ""correct_choice"": ""l"", ""choices"": [""a"", ""l""], ""time_elapsed"": 220405, ""fill_ITT"": true, ""key_press"": 76, ""condition"": ""1"", ""uniqueId"": ""debugJ82PY0:debugMX4MY8"", ""response_ends_trial"": true, ""correct"": true, ""trial_index"": 10}"
debugJ82PY0:debugMX4MY8,11,1542862219543,"{""rt"": 1333.7999999930616, ""trial_type"": ""dotmotion"", ""task"": ""motion"", ""phase2_counterbalance"": 0, ""sequence"": 5, ""trial_duration"": 3000, ""phase1_counterbalance"": 1, ""internal_node_id"": ""0.0-11.0-0.0"", ""correct_choice"": ""a"", ""choices"": [""a"", ""l""], ""time_elapsed"": 222262, ""fill_ITT"": true, ""key_press"": 65, ""condition"": ""1"", ""uniqueId"": ""debugJ82PY0:debugMX4MY8"", ""response_ends_trial"": true, ""correct"": true, ""trial_index"": 11}"
debugJ82PY0:debugMX4MY8,12,1542862222268,"{""rt"": 2204.5000000071013, ""trial_type"": ""dotmotion"", ""task"": ""motion"", ""phase2_counterbalance"": 0, ""sequence"": 5, ""trial_duration"": 3000, ""phase1_counterbalance"": 1, ""internal_node_id"": ""0.0-12.0-0.0"", ""correct_choice"": ""l"", ""choices"": [""a"", ""l""], ""time_elapsed"": 224986, ""fill_ITT"": true, ""key_press"": 76, ""condition"": ""1"", ""uniqueId"": ""debugJ82PY0:debugMX4MY8"", ""response_ends_trial"": true, ""correct"": true, ""trial_index"": 12}"
debugJ82PY0:debugMX4MY8,13,1542862223899,"{""rt"": 1110.3000000002794, ""trial_type"": ""dotmotion"", ""task"": ""motion"", ""phase2_counterbalance"": 0, ""sequence"": 5, ""trial_duration"": 3000, ""phase1_counterbalance"": 1, ""internal_node_id"": ""0.0-13.0-0.0"", ""correct_choice"": ""a"", ""choices"": [""a"", ""l""], ""time_elapsed"": 226618, ""fill_ITT"": true, ""key_press"": 65, ""condition"": ""1"", ""uniqueId"": ""debugJ82PY0:debugMX4MY8"", ""response_ends_trial"": true, ""correct"": true, ""trial_index"": 13}"
debugJ82PY0:debugMX4MY8,14,1542862255507,"{""rt"": 31101, ""trial_type"": ""instructions"", ""view_history"": ""[{\""page_index\"":0,\""viewing_time\"":31101}]"", ""sequence"": 5, ""phase1_counterbalance"": 1, ""internal_node_id"": ""0.0-14.0"", ""time_elapsed"": 258226, ""condition"": ""1"", ""uniqueId"": ""debugJ82PY0:debugMX4MY8"", ""phase2_counterbalance"": 0, ""trial_index"": 14}"
debugJ82PY0:debugMX4MY8,15,1542862286039,"{""rt"": 29528, ""trial_type"": ""instructions"", ""view_history"": ""[{\""page_index\"":0,\""viewing_time\"":29528}]"", ""sequence"": 5, ""phase1_counterbalance"": 1, ""internal_node_id"": ""0.0-15.0"", ""time_elapsed"": 288758, ""condition"": ""1"", ""uniqueId"": ""debugJ82PY0:debugMX4MY8"", ""phase2_counterbalance"": 0, ""trial_index"": 15}"
debugJ82PY0:debugMX4MY8,16,1542862289615,"{""rt"": 1015.7000000035623, ""trial_type"": ""dotmotion"", ""task"": ""color"", ""phase2_counterbalance"": 0, ""sequence"": 5, ""trial_duration"": 3000, ""phase1_counterbalance"": 1, ""internal_node_id"": ""0.0-16.0-0.0"", ""correct_choice"": ""l"", ""choices"": [""a"", ""l""], ""time_elapsed"": 292334, ""fill_ITT"": true, ""key_press"": 76, ""condition"": ""1"", ""uniqueId"": ""debugJ82PY0:debugMX4MY8"", ""phase"": ""1.2"", ""response_ends_trial"": true, ""correct"": true, ""trial_index"": 16}"
debugJ82PY0:debugMX4MY8,17,1542862292806,"{""rt"": null, ""trial_type"": ""html-keyboard-response"", ""sequence"": 5, ""stimulus"": """", ""phase1_counterbalance"": 1, ""internal_node_id"": ""0.0-16.0-1.0"", ""time_elapsed"": 295525, ""key_press"": null, ""condition"": ""1"", ""uniqueId"": ""debugJ82PY0:debugMX4MY8"", ""phase2_counterbalance"": 0, ""trial_index"": 17}"
debugJ82PY0:debugMX4MY8,18,1542862294798,"{""rt"": 475.6000000052154, ""trial_type"": ""dotmotion"", ""task"": ""color"", ""phase2_counterbalance"": 0, ""sequence"": 5, ""trial_duration"": 3000, ""phase1_counterbalance"": 1, ""internal_node_id"": ""0.0-17.0-0.0"", ""correct_choice"": ""l"", ""choices"": [""a"", ""l""], ""time_elapsed"": 297517, ""fill_ITT"": true, ""key_press"": 76, ""condition"": ""1"", ""uniqueId"": ""debugJ82PY0:debugMX4MY8"", ""phase"": ""1.2"", ""response_ends_trial"": true, ""correct"": true, ""trial_index"": 18}"
debugJ82PY0:debugMX4MY8,19,1542862298528,"{""rt"": null, ""trial_type"": ""html-keyboard-response"", ""sequence"": 5, ""stimulus"": """", ""phase1_counterbalance"": 1, ""internal_node_id"": ""0.0-17.0-1.0"", ""time_elapsed"": 301247, ""key_press"": null, ""condition"": ""1"", ""uniqueId"": ""debugJ82PY0:debugMX4MY8"", ""phase2_counterbalance"": 0, ""trial_index"": 19}"
debugJ82PY0:debugMX4MY8,20,1542862300487,"{""rt"": 402.20000001136214, ""trial_type"": ""dotmotion"", ""task"": ""color"", ""phase2_counterbalance"": 0, ""sequence"": 5, ""trial_duration"": 3000, ""phase1_counterbalance"": 1, ""internal_node_id"": ""0.0-18.0-0.0"", ""correct_choice"": ""l"", ""choices"": [""a"", ""l""], ""time_elapsed"": 303205, ""fill_ITT"": true, ""key_press"": 76, ""condition"": ""1"", ""uniqueId"": ""debugJ82PY0:debugMX4MY8"", ""phase"": ""1.2"", ""response_ends_trial"": true, ""correct"": true, ""trial_index"": 20}"
debugJ82PY0:debugMX4MY8,21,1542862304290,"{""rt"": null, ""trial_type"": ""html-keyboard-response"", ""sequence"": 5, ""stimulus"": """", ""phase1_counterbalance"": 1, ""internal_node_id"": ""0.0-18.0-1.0"", ""time_elapsed"": 307008, ""key_press"": null, ""condition"": ""1"", ""uniqueId"": ""debugJ82PY0:debugMX4MY8"", ""phase2_counterbalance"": 0, ""trial_index"": 21}"
debugJ82PY0:debugMX4MY8,22,1542862306633,"{""rt"": 820.8000000013271, ""trial_type"": ""dotmotion"", ""task"": ""color"", ""phase2_counterbalance"": 0, ""sequence"": 5, ""trial_duration"": 3000, ""phase1_counterbalance"": 1, ""internal_node_id"": ""0.0-19.0-0.0"", ""correct_choice"": ""l"", ""choices"": [""a"", ""l""], ""time_elapsed"": 309352, ""fill_ITT"": true, ""key_press"": 76, ""condition"": ""1"", ""uniqueId"": ""debugJ82PY0:debugMX4MY8"", ""phase"": ""1.2"", ""response_ends_trial"": true, ""correct"": true, ""trial_index"": 22}"
debugJ82PY0:debugMX4MY8,23,1542862310024,"{""rt"": null, ""trial_type"": ""html-keyboard-response"", ""sequence"": 5, ""stimulus"": """", ""phase1_counterbalance"": 1, ""internal_node_id"": ""0.0-19.0-1.0"", ""time_elapsed"": 312743, ""key_press"": null, ""condition"": ""1"", ""uniqueId"": ""debugJ82PY0:debugMX4MY8"", ""phase2_counterbalance"": 0, ""trial_index"": 23}"
debugJ82PY0:debugMX4MY8,24,1542862311944,"{""rt"": 368.39999999210704, ""trial_type"": ""dotmotion"", ""task"": ""color"", ""phase2_counterbalance"": 0, ""sequence"": 5, ""trial_duration"": 3000, ""phase1_counterbalance"": 1, ""internal_node_id"": ""0.0-20.0-0.0"", ""correct_choice"": ""a"", ""choices"": [""a"", ""l""], ""time_elapsed"": 314663, ""fill_ITT"": true, ""key_press"": 65, ""condition"": ""1"", ""uniqueId"": ""debugJ82PY0:debugMX4MY8"", ""phase"": ""1.2"", ""response_ends_trial"": true, ""correct"": true, ""trial_index"": 24}"
debugJ82PY0:debugMX4MY8,25,1542862315786,"{""rt"": null, ""trial_type"": ""html-keyboard-response"", ""sequence"": 5, ""stimulus"": """", ""phase1_counterbalance"": 1, ""internal_node_id"": ""0.0-20.0-1.0"", ""time_elapsed"": 318505, ""key_press"": null, ""condition"": ""1"", ""uniqueId"": ""debugJ82PY0:debugMX4MY8"", ""phase2_counterbalance"": 0, ""trial_index"": 25}"
debugJ82PY0:debugMX4MY8,26,1542862317754,"{""rt"": 451.60000000032596, ""trial_type"": ""dotmotion"", ""task"": ""color"", ""phase2_counterbalance"": 0, ""sequence"": 5, ""trial_duration"": 3000, ""phase1_counterbalance"": 1, ""internal_node_id"": ""0.0-21.0-0.0"", ""correct_choice"": ""a"", ""choices"": [""a"", ""l""], ""time_elapsed"": 320472, ""fill_ITT"": true, ""key_press"": 65, ""condition"": ""1"", ""uniqueId"": ""debugJ82PY0:debugMX4MY8"", ""phase"": ""1.2"", ""response_ends_trial"": true, ""correct"": true, ""trial_index"": 26}"
debugJ82PY0:debugMX4MY8,27,1542862321513,"{""rt"": null, ""trial_type"": ""html-keyboard-response"", ""sequence"": 5, ""stimulus"": """", ""phase1_counterbalance"": 1, ""internal_node_id"": ""0.0-21.0-1.0"", ""time_elapsed"": 324231, ""key_press"": null, ""condition"": ""1"", ""uniqueId"": ""debugJ82PY0:debugMX4MY8"", ""phase2_counterbalance"": 0, ""trial_index"": 27}"
debugJ82PY0:debugMX4MY8,28,1542862323837,"{""rt"": 762.0000000024447, ""trial_type"": ""dotmotion"", ""task"": ""color"", ""phase2_counterbalance"": 0, ""sequence"": 5, ""trial_duration"": 3000, ""phase1_counterbalance"": 1, ""internal_node_id"": ""0.0-22.0-0.0"", ""correct_choice"": ""l"", ""choices"": [""a"", ""l""], ""time_elapsed"": 326556, ""fill_ITT"": true, ""key_press"": 76, ""condition"": ""1"", ""uniqueId"": ""debugJ82PY0:debugMX4MY8"", ""phase"": ""1.2"", ""response_ends_trial"": true, ""correct"": true, ""trial_index"": 28}"
debugJ82PY0:debugMX4MY8,29,1542862327283,"{""rt"": null, ""trial_type"": ""html-keyboard-response"", ""sequence"": 5, ""stimulus"": """", ""phase1_counterbalance"": 1, ""internal_node_id"": ""0.0-22.0-1.0"", ""time_elapsed"": 330002, ""key_press"": null, ""condition"": ""1"", ""uniqueId"": ""debugJ82PY0:debugMX4MY8"", ""phase2_counterbalance"": 0, ""trial_index"": 29}"
debugJ82PY0:debugMX4MY8,30,1542862329558,"{""rt"": 752.3999999975786, ""trial_type"": ""dotmotion"", ""task"": ""color"", ""phase2_counterbalance"": 0, ""sequence"": 5, ""trial_duration"": 3000, ""phase1_counterbalance"": 1, ""internal_node_id"": ""0.0-23.0-0.0"", ""correct_choice"": ""l"", ""choices"": [""a"", ""l""], ""time_elapsed"": 332277, ""fill_ITT"": true, ""key_press"": 76, ""condition"": ""1"", ""uniqueId"": ""debugJ82PY0:debugMX4MY8"", ""phase"": ""1.2"", ""response_ends_trial"": true, ""correct"": true, ""trial_index"": 30}"
debugJ82PY0:debugMX4MY8,31,1542862333016,"{""rt"": null, ""trial_type"": ""html-keyboard-response"", ""sequence"": 5, ""stimulus"": """", ""phase1_counterbalance"": 1, ""internal_node_id"": ""0.0-23.0-1.0"", ""time_elapsed"": 335735, ""key_press"": null, ""condition"": ""1"", ""uniqueId"": ""debugJ82PY0:debugMX4MY8"", ""phase2_counterbalance"": 0, ""trial_index"": 31}"
debugJ82PY0:debugMX4MY8,32,1542862335027,"{""rt"": 463.6000000027707, ""trial_type"": ""dotmotion"", ""task"": ""color"", ""phase2_counterbalance"": 0, ""sequence"": 5, ""trial_duration"": 3000, ""phase1_counterbalance"": 1, ""internal_node_id"": ""0.0-24.0-0.0"", ""correct_choice"": ""l"", ""choices"": [""a"", ""l""], ""time_elapsed"": 337746, ""fill_ITT"": true, ""key_press"": 76, ""condition"": ""1"", ""uniqueId"": ""debugJ82PY0:debugMX4MY8"", ""phase"": ""1.2"", ""response_ends_trial"": true, ""correct"": true, ""trial_index"": 32}"
debugJ82PY0:debugMX4MY8,33,1542862338769,"{""rt"": null, ""trial_type"": ""html-keyboard-response"", ""sequence"": 5, ""stimulus"": """", ""phase1_counterbalance"": 1, ""internal_node_id"": ""0.0-24.0-1.0"", ""time_elapsed"": 341488, ""key_press"": null, ""condition"": ""1"", ""uniqueId"": ""debugJ82PY0:debugMX4MY8"", ""phase2_counterbalance"": 0, ""trial_index"": 33}"
debugJ82PY0:debugMX4MY8,34,1542862340602,"{""rt"": 320.09999999718275, ""trial_type"": ""dotmotion"", ""task"": ""color"", ""phase2_counterbalance"": 0, ""sequence"": 5, ""trial_duration"": 3000, ""phase1_counterbalance"": 1, ""internal_node_id"": ""0.0-25.0-0.0"", ""correct_choice"": ""l"", ""choices"": [""a"", ""l""], ""time_elapsed"": 343321, ""fill_ITT"": true, ""key_press"": 76, ""condition"": ""1"", ""uniqueId"": ""debugJ82PY0:debugMX4MY8"", ""phase"": ""1.2"", ""response_ends_trial"": true, ""correct"": true, ""trial_index"": 34}"
debugJ82PY0:debugMX4MY8,35,1542862344488,"{""rt"": null, ""trial_type"": ""html-keyboard-response"", ""sequence"": 5, ""stimulus"": """", ""phase1_counterbalance"": 1, ""internal_node_id"": ""0.0-25.0-1.0"", ""time_elapsed"": 347207, ""key_press"": null, ""condition"": ""1"", ""uniqueId"": ""debugJ82PY0:debugMX4MY8"", ""phase2_counterbalance"": 0, ""trial_index"": 35}"
debugJ82PY0:debugMX4MY8,36,1542862360116,"{""rt"": 15626, ""trial_type"": ""instructions"", ""view_history"": ""[{\""page_index\"":0,\""viewing_time\"":15624}]"", ""sequence"": 5, ""phase1_counterbalance"": 1, ""internal_node_id"": ""0.0-26.0"", ""time_elapsed"": 362835, ""condition"": ""1"", ""uniqueId"": ""debugJ82PY0:debugMX4MY8"", ""phase2_counterbalance"": 0, ""trial_index"": 36}"
debugJ82PY0:debugMX4MY8,37,1542862363562,"{""rt"": 696.0000000108266, ""trial_type"": ""dotmotion"", ""task"": ""motion"", ""phase2_counterbalance"": 0, ""sequence"": 5, ""trial_duration"": 3000, ""phase1_counterbalance"": 1, ""internal_node_id"": ""0.0-27.0-0.0"", ""correct_choice"": ""a"", ""choices"": [""a"", ""l""], ""time_elapsed"": 366281, ""fill_ITT"": true, ""key_press"": 65, ""condition"": ""1"", ""uniqueId"": ""debugJ82PY0:debugMX4MY8"", ""phase"": ""1.1"", ""response_ends_trial"": true, ""correct"": true, ""trial_index"": 37}"
debugJ82PY0:debugMX4MY8,38,1542862367074,"{""rt"": null, ""trial_type"": ""html-keyboard-response"", ""sequence"": 5, ""stimulus"": """", ""phase1_counterbalance"": 1, ""internal_node_id"": ""0.0-27.0-1.0"", ""time_elapsed"": 369793, ""key_press"": null, ""condition"": ""1"", ""uniqueId"": ""debugJ82PY0:debugMX4MY8"", ""phase2_counterbalance"": 0, ""trial_index"": 38}"
debugJ82PY0:debugMX4MY8,39,1542862368885,"{""rt"": 285.49999999813735, ""trial_type"": ""dotmotion"", ""task"": ""motion"", ""phase2_counterbalance"": 0, ""sequence"": 5, ""trial_duration"": 3000, ""phase1_counterbalance"": 1, ""internal_node_id"": ""0.0-28.0-0.0"", ""correct_choice"": ""a"", ""choices"": [""a"", ""l""], ""time_elapsed"": 371603, ""fill_ITT"": true, ""key_press"": 65, ""condition"": ""1"", ""uniqueId"": ""debugJ82PY0:debugMX4MY8"", ""phase"": ""1.1"", ""response_ends_trial"": true, ""correct"": true, ""trial_index"": 39}"
debugJ82PY0:debugMX4MY8,40,1542862372806,"{""rt"": null, ""trial_type"": ""html-keyboard-response"", ""sequence"": 5, ""stimulus"": """", ""phase1_counterbalance"": 1, ""internal_node_id"": ""0.0-28.0-1.0"", ""time_elapsed"": 375524, ""key_press"": null, ""condition"": ""1"", ""uniqueId"": ""debugJ82PY0:debugMX4MY8"", ""phase2_counterbalance"": 0, ""trial_index"": 40}"
debugJ82PY0:debugMX4MY8,41,1542862375025,"{""rt"": 649.4999999995343, ""trial_type"": ""dotmotion"", ""task"": ""motion"", ""phase2_counterbalance"": 0, ""sequence"": 5, ""trial_duration"": 3000, ""phase1_counterbalance"": 1, ""internal_node_id"": ""0.0-29.0-0.0"", ""correct_choice"": ""a"", ""choices"": [""a"", ""l""], ""time_elapsed"": 377744, ""fill_ITT"": true, ""key_press"": 65, ""condition"": ""1"", ""uniqueId"": ""debugJ82PY0:debugMX4MY8"", ""phase"": ""1.1"", ""response_ends_trial"": true, ""correct"": true, ""trial_index"": 41}"
debugJ82PY0:debugMX4MY8,42,1542862378583,"{""rt"": null, ""trial_type"": ""html-keyboard-response"", ""sequence"": 5, ""stimulus"": """", ""phase1_counterbalance"": 1, ""internal_node_id"": ""0.0-29.0-1.0"", ""time_elapsed"": 381301, ""key_press"": null, ""condition"": ""1"", ""uniqueId"": ""debugJ82PY0:debugMX4MY8"", ""phase2_counterbalance"": 0, ""trial_index"": 42}"
debugJ82PY0:debugMX4MY8,43,1542862380587,"{""rt"": 491.9999999983702, ""trial_type"": ""dotmotion"", ""task"": ""motion"", ""phase2_counterbalance"": 0, ""sequence"": 5, ""trial_duration"": 3000, ""phase1_counterbalance"": 1, ""internal_node_id"": ""0.0-30.0-0.0"", ""correct_choice"": ""l"", ""choices"": [""a"", ""l""], ""time_elapsed"": 383306, ""fill_ITT"": true, ""key_press"": 76, ""condition"": ""1"", ""uniqueId"": ""debugJ82PY0:debugMX4MY8"", ""phase"": ""1.1"", ""response_ends_trial"": true, ""correct"": true, ""trial_index"": 43}"
debugJ82PY0:debugMX4MY8,44,1542862384302,"{""rt"": null, ""trial_type"": ""html-keyboard-response"", ""sequence"": 5, ""stimulus"": """", ""phase1_counterbalance"": 1, ""internal_node_id"": ""0.0-30.0-1.0"", ""time_elapsed"": 387020, ""key_press"": null, ""condition"": ""1"", ""uniqueId"": ""debugJ82PY0:debugMX4MY8"", ""phase2_counterbalance"": 0, ""trial_index"": 44}"
debugJ82PY0:debugMX4MY8,45,1542862386425,"{""rt"": 579.5999999972992, ""trial_type"": ""dotmotion"", ""task"": ""motion"", ""phase2_counterbalance"": 0, ""sequence"": 5, ""trial_duration"": 3000, ""phase1_counterbalance"": 1, ""internal_node_id"": ""0.0-31.0-0.0"", ""correct_choice"": ""a"", ""choices"": [""a"", ""l""], ""time_elapsed"": 389144, ""fill_ITT"": true, ""key_press"": 65, ""condition"": ""1"", ""uniqueId"": ""debugJ82PY0:debugMX4MY8"", ""phase"": ""1.1"", ""response_ends_trial"": true, ""correct"": true, ""trial_index"": 45}"
debugJ82PY0:debugMX4MY8,46,1542862390055,"{""rt"": null, ""trial_type"": ""html-keyboard-response"", ""sequence"": 5, ""stimulus"": """", ""phase1_counterbalance"": 1, ""internal_node_id"": ""0.0-31.0-1.0"", ""time_elapsed"": 392774, ""key_press"": null, ""condition"": ""1"", ""uniqueId"": ""debugJ82PY0:debugMX4MY8"", ""phase2_counterbalance"": 0, ""trial_index"": 46}"
debugJ82PY0:debugMX4MY8,47,1542862392086,"{""rt"": 505.4000000091037, ""trial_type"": ""dotmotion"", ""task"": ""motion"", ""phase2_counterbalance"": 0, ""sequence"": 5, ""trial_duration"": 3000, ""phase1_counterbalance"": 1, ""internal_node_id"": ""0.0-32.0-0.0"", ""correct_choice"": ""l"", ""choices"": [""a"", ""l""], ""time_elapsed"": 394804, ""fill_ITT"": true, ""key_press"": 76, ""condition"": ""1"", ""uniqueId"": ""debugJ82PY0:debugMX4MY8"", ""phase"": ""1.1"", ""response_ends_trial"": true, ""correct"": true, ""trial_index"": 47}"
debugJ82PY0:debugMX4MY8,48,1542862395789,"{""rt"": null, ""trial_type"": ""html-keyboard-response"", ""sequence"": 5, ""stimulus"": """", ""phase1_counterbalance"": 1, ""internal_node_id"": ""0.0-32.0-1.0"", ""time_elapsed"": 398507, ""key_press"": null, ""condition"": ""1"", ""uniqueId"": ""debugJ82PY0:debugMX4MY8"", ""phase2_counterbalance"": 0, ""trial_index"": 48}"
debugJ82PY0:debugMX4MY8,49,1542862397766,"{""rt"": 415.0999999983469, ""trial_type"": ""dotmotion"", ""task"": ""motion"", ""phase2_counterbalance"": 0, ""sequence"": 5, ""trial_duration"": 3000, ""phase1_counterbalance"": 1, ""internal_node_id"": ""0.0-33.0-0.0"", ""correct_choice"": ""a"", ""choices"": [""a"", ""l""], ""time_elapsed"": 400485, ""fill_ITT"": true, ""key_press"": 65, ""condition"": ""1"", ""uniqueId"": ""debugJ82PY0:debugMX4MY8"", ""phase"": ""1.1"", ""response_ends_trial"": true, ""correct"": true, ""trial_index"": 49}"
debugJ82PY0:debugMX4MY8,50,1542862401559,"{""rt"": null, ""trial_type"": ""html-keyboard-response"", ""sequence"": 5, ""stimulus"": """", ""phase1_counterbalance"": 1, ""internal_node_id"": ""0.0-33.0-1.0"", ""time_elapsed"": 404278, ""key_press"": null, ""condition"": ""1"", ""uniqueId"": ""debugJ82PY0:debugMX4MY8"", ""phase2_counterbalance"": 0, ""trial_index"": 50}"
debugJ82PY0:debugMX4MY8,51,1542862403426,"{""rt"": 352.70000000309665, ""trial_type"": ""dotmotion"", ""task"": ""motion"", ""phase2_counterbalance"": 0, ""sequence"": 5, ""trial_duration"": 3000, ""phase1_counterbalance"": 1, ""internal_node_id"": ""0.0-34.0-0.0"", ""correct_choice"": ""l"", ""choices"": [""a"", ""l""], ""time_elapsed"": 406145, ""fill_ITT"": true, ""key_press"": 76, ""condition"": ""1"", ""uniqueId"": ""debugJ82PY0:debugMX4MY8"", ""phase"": ""1.1"", ""response_ends_trial"": true, ""correct"": true, ""trial_index"": 51}"
debugJ82PY0:debugMX4MY8,52,1542862407282,"{""rt"": null, ""trial_type"": ""html-keyboard-response"", ""sequence"": 5, ""stimulus"": """", ""phase1_counterbalance"": 1, ""internal_node_id"": ""0.0-34.0-1.0"", ""time_elapsed"": 410001, ""key_press"": null, ""condition"": ""1"", ""uniqueId"": ""debugJ82PY0:debugMX4MY8"", ""phase2_counterbalance"": 0, ""trial_index"": 52}"
debugJ82PY0:debugMX4MY8,53,1542862409658,"{""rt"": 676.6999999963446, ""trial_type"": ""dotmotion"", ""task"": ""motion"", ""phase2_counterbalance"": 0, ""sequence"": 5, ""trial_duration"": 3000, ""phase1_counterbalance"": 1, ""internal_node_id"": ""0.0-35.0-0.0"", ""correct_choice"": ""l"", ""choices"": [""a"", ""l""], ""time_elapsed"": 412377, ""fill_ITT"": true, ""key_press"": 76, ""condition"": ""1"", ""uniqueId"": ""debugJ82PY0:debugMX4MY8"", ""phase"": ""1.1"", ""response_ends_trial"": true, ""correct"": true, ""trial_index"": 53}"
debugJ82PY0:debugMX4MY8,54,1542862413188,"{""rt"": null, ""trial_type"": ""html-keyboard-response"", ""sequence"": 5, ""stimulus"": """", ""phase1_counterbalance"": 1, ""internal_node_id"": ""0.0-35.0-1.0"", ""time_elapsed"": 415907, ""key_press"": null, ""condition"": ""1"", ""uniqueId"": ""debugJ82PY0:debugMX4MY8"", ""phase2_counterbalance"": 0, ""trial_index"": 54}"
debugJ82PY0:debugMX4MY8,55,1542862415021,"{""rt"": 313.90000000828877, ""trial_type"": ""dotmotion"", ""task"": ""motion"", ""phase2_counterbalance"": 0, ""sequence"": 5, ""trial_duration"": 3000, ""phase1_counterbalance"": 1, ""internal_node_id"": ""0.0-36.0-0.0"", ""correct_choice"": ""l"", ""choices"": [""a"", ""l""], ""time_elapsed"": 417740, ""fill_ITT"": true, ""key_press"": 76, ""condition"": ""1"", ""uniqueId"": ""debugJ82PY0:debugMX4MY8"", ""phase"": ""1.1"", ""response_ends_trial"": true, ""correct"": true, ""trial_index"": 55}"
debugJ82PY0:debugMX4MY8,56,1542862418917,"{""rt"": null, ""trial_type"": ""html-keyboard-response"", ""sequence"": 5, ""stimulus"": """", ""phase1_counterbalance"": 1, ""internal_node_id"": ""0.0-36.0-1.0"", ""time_elapsed"": 421636, ""key_press"": null, ""condition"": ""1"", ""uniqueId"": ""debugJ82PY0:debugMX4MY8"", ""phase2_counterbalance"": 0, ""trial_index"": 56}"
debugJ82PY0:debugMX4MY8,57,1542862448308,"{""rt"": 29389, ""trial_type"": ""instructions"", ""view_history"": ""[{\""page_index\"":0,\""viewing_time\"":29388}]"", ""sequence"": 5, ""phase1_counterbalance"": 1, ""internal_node_id"": ""0.0-37.0"", ""time_elapsed"": 451027, ""condition"": ""1"", ""uniqueId"": ""debugJ82PY0:debugMX4MY8"", ""phase2_counterbalance"": 0, ""trial_index"": 57}"
debugJ82PY0:debugMX4MY8,58,1542862449919,"{""rt"": null, ""trial_type"": ""html-keyboard-response"", ""sequence"": 5, ""stimulus"": ""<div style='float: center;'><img src='/static/images/circle.png'></img></div>"", ""phase1_counterbalance"": 1, ""internal_node_id"": ""0.0-38.0"", ""time_elapsed"": 452637, ""key_press"": null, ""condition"": ""1"", ""uniqueId"": ""debugJ82PY0:debugMX4MY8"", ""phase2_counterbalance"": 0, ""trial_index"": 58}"
debugJ82PY0:debugMX4MY8,59,1542862451502,"{""rt"": -1, ""trial_type"": ""dotmotion"", ""task"": ""undefined"", ""phase2_counterbalance"": 0, ""sequence"": 5, ""trial_duration"": 1500, ""phase1_counterbalance"": 1, ""internal_node_id"": ""0.0-39.0"", ""correct_choice"": ""undefined"", ""choices"": [""a"", ""l""], ""time_elapsed"": 454220, ""fill_ITT"": true, ""key_press"": -1, ""condition"": ""1"", ""uniqueId"": ""debugJ82PY0:debugMX4MY8"", ""response_ends_trial"": true, ""correct"": false, ""trial_index"": 59}"
debugJ82PY0:debugMX4MY8,60,1542862472005,"{""rt"": 20000, ""trial_type"": ""instructions"", ""view_history"": ""[{\""page_index\"":0,\""viewing_time\"":19999}]"", ""sequence"": 5, ""phase1_counterbalance"": 1, ""internal_node_id"": ""0.0-40.0"", ""time_elapsed"": 474724, ""condition"": ""1"", ""uniqueId"": ""debugJ82PY0:debugMX4MY8"", ""phase2_counterbalance"": 0, ""trial_index"": 60}"
debugJ82PY0:debugMX4MY8,61,1542862481958,"{""rt"": 8950, ""trial_type"": ""instructions"", ""view_history"": ""[{\""page_index\"":0,\""viewing_time\"":8950}]"", ""sequence"": 5, ""phase1_counterbalance"": 1, ""internal_node_id"": ""0.0-41.0"", ""time_elapsed"": 484677, ""condition"": ""1"", ""uniqueId"": ""debugJ82PY0:debugMX4MY8"", ""phase2_counterbalance"": 0, ""trial_index"": 61}"
debugJ82PY0:debugMX4MY8,62,1542862573546,"{""rt"": 90585, ""trial_type"": ""instructions"", ""view_history"": ""[{\""page_index\"":0,\""viewing_time\"":30704},{\""page_index\"":1,\""viewing_time\"":4025},{\""page_index\"":2,\""viewing_time\"":17670},{\""page_index\"":3,\""viewing_time\"":4438},{\""page_index\"":4,\""viewing_time\"":33746}]"", ""sequence"": 5, ""phase1_counterbalance"": 1, ""internal_node_id"": ""0.0-42.0"", ""time_elapsed"": 576265, ""condition"": ""1"", ""uniqueId"": ""debugJ82PY0:debugMX4MY8"", ""phase2_counterbalance"": 0, ""trial_index"": 62}"
debugJ82PY0:debugMX4MY8,63,1542862577077,"{""rt"": 2521, ""trial_type"": ""html-keyboard-response"", ""task"": ""motion"", ""sequence"": 5, ""stimulus"": ""<div style='color:white'; class='row'>The square cues a motion trial (press the right arrow key).</div><div class='row'><div class='column' style='border:3px solid grey'><p class='small'><strong>Color Trial (&larr;)</strong></p></div><div class='column' style='border:3px solid grey'><p class='small'><strong>(&rarr;) Motion Trial</strong></p></div></div><div><div style='float: center;'><img src='/static/images/square.png'></img></div></div><div style='width: 700px; height: 100px;'><div style='float: center; color: grey'>Filler</div></div>"", ""practice"": true, ""condition"": ""1"", ""time_elapsed"": 579795, ""correct_choice"": 39, ""correct"": true, ""phase1_counterbalance"": 1, ""cue"": ""square"", ""key_press"": 39, ""swap"": true, ""uniqueId"": ""debugJ82PY0:debugMX4MY8"", ""internal_node_id"": ""0.0-43.0-0.0"", ""phase2_counterbalance"": 0, ""trial_index"": 63}"
debugJ82PY0:debugMX4MY8,64,1542862580588,"{""rt"": null, ""trial_type"": ""html-keyboard-response"", ""task"": ""motion"", ""sequence"": 5, ""stimulus"": ""<div style='color:white'; class='row'>The square cues a motion trial (press the right arrow key).</div><div class='row'><div class='column' style='border:3px solid grey'><p class='small'><strong>Color Trial (&larr;)</strong></p></div><div class='column' style='border:3px solid green'><p class='small'><strong>(&rarr;) Motion Trial</strong></p></div></div><div><div style='float: center;'><img src='/static/images/square.png'></img></div></div><div style='width: 700px; height: 100px;'><div style='float: center; color: grey'>Filler</div></div>"", ""practice"": true, ""condition"": ""1"", ""time_elapsed"": 583306, ""correct_choice"": 39, ""phase1_counterbalance"": 1, ""cue"": ""square"", ""key_press"": null, ""swap"": true, ""uniqueId"": ""debugJ82PY0:debugMX4MY8"", ""internal_node_id"": ""0.0-43.0-1.0"", ""phase2_counterbalance"": 0, ""trial_index"": 64}"
debugJ82PY0:debugMX4MY8,65,1542862581295,"{""rt"": null, ""trial_type"": ""html-keyboard-response"", ""sequence"": 5, ""stimulus"": ""<div style=\""float: center; font-size:60px; color:black;\"">+</div>"", ""phase1_counterbalance"": 1, ""internal_node_id"": ""0.0-43.0-2.0"", ""time_elapsed"": 584013, ""key_press"": null, ""condition"": ""1"", ""uniqueId"": ""debugJ82PY0:debugMX4MY8"", ""phase2_counterbalance"": 0, ""trial_index"": 65}"
debugJ82PY0:debugMX4MY8,66,1542862583924,"{""rt"": 2625, ""trial_type"": ""html-keyboard-response"", ""task"": ""motion"", ""sequence"": 5, ""stimulus"": ""<div style='color:white'; class='row'>The diamond cues a motion trial (press the left arrow key).</div><div class='row'><div class='column' style='border:3px solid grey'><p class='small'><strong>Motion Trial (&larr;)</strong></p></div><div class='column' style='border:3px solid grey'><p class='small'><strong>(&rarr;) Color Trial</strong></p></div></div><div><div style='float: center;'><img src='/static/images/diamond.png'></img></div></div><div style='width: 700px; height: 100px;'><div style='float: center; color: grey'>Filler</div></div>"", ""practice"": true, ""condition"": ""1"", ""time_elapsed"": 586642, ""correct_choice"": 37, ""correct"": true, ""phase1_counterbalance"": 1, ""cue"": ""diamond"", ""key_press"": 37, ""swap"": false, ""uniqueId"": ""debugJ82PY0:debugMX4MY8"", ""internal_node_id"": ""0.0-43.0-0.1"", ""phase2_counterbalance"": 0, ""trial_index"": 66}"
debugJ82PY0:debugMX4MY8,67,1542862587429,"{""rt"": null, ""trial_type"": ""html-keyboard-response"", ""task"": ""motion"", ""sequence"": 5, ""stimulus"": ""<div style='color:white'; class='row'>The diamond cues a motion trial (press the left arrow key).</div><div class='row'><div class='column' style='border:3px solid green'><p class='small'><strong>Motion Trial (&larr;)</strong></p></div><div class='column' style='border:3px solid grey'><p class='small'><strong>(&rarr;) Color Trial</strong></p></div></div><div><div style='float: center;'><img src='/static/images/diamond.png'></img></div></div><div style='width: 700px; height: 100px;'><div style='float: center; color: grey'>Filler</div></div>"", ""practice"": true, ""condition"": ""1"", ""time_elapsed"": 590147, ""correct_choice"": 37, ""phase1_counterbalance"": 1, ""cue"": ""diamond"", ""key_press"": null, ""swap"": false, ""uniqueId"": ""debugJ82PY0:debugMX4MY8"", ""internal_node_id"": ""0.0-43.0-1.1"", ""phase2_counterbalance"": 0, ""trial_index"": 67}"
debugJ82PY0:debugMX4MY8,68,1542862588133,"{""rt"": null, ""trial_type"": ""html-keyboard-response"", ""sequence"": 5, ""stimulus"": ""<div style=\""float: center; font-size:60px; color:black;\"">+</div>"", ""phase1_counterbalance"": 1, ""internal_node_id"": ""0.0-43.0-2.1"", ""time_elapsed"": 590852, ""key_press"": null, ""condition"": ""1"", ""uniqueId"": ""debugJ82PY0:debugMX4MY8"", ""phase2_counterbalance"": 0, ""trial_index"": 68}"
debugJ82PY0:debugMX4MY8,69,1542862589077,"{""rt"": 939, ""trial_type"": ""html-keyboard-response"", ""task"": ""color"", ""sequence"": 5, ""stimulus"": ""<div style='color:white'; class='row'>The triangle cues a color trial (press the right arrow key).</div><div class='row'><div class='column' style='border:3px solid grey'><p class='small'><strong>Motion Trial (&larr;)</strong></p></div><div class='column' style='border:3px solid grey'><p class='small'><strong>(&rarr;) Color Trial</strong></p></div></div><div><div style='float: center;'><img src='/static/images/triangle.png'></img></div></div><div style='width: 700px; height: 100px;'><div style='float: center; color: grey'>Filler</div></div>"", ""practice"": true, ""condition"": ""1"", ""time_elapsed"": 591795, ""correct_choice"": 39, ""correct"": true, ""phase1_counterbalance"": 1, ""cue"": ""triangle"", ""key_press"": 39, ""swap"": false, ""uniqueId"": ""debugJ82PY0:debugMX4MY8"", ""internal_node_id"": ""0.0-43.0-0.2"", ""phase2_counterbalance"": 0, ""trial_index"": 69}"
debugJ82PY0:debugMX4MY8,70,1542862592584,"{""rt"": null, ""trial_type"": ""html-keyboard-response"", ""task"": ""color"", ""sequence"": 5, ""stimulus"": ""<div style='color:white'; class='row'>The triangle cues a color trial (press the right arrow key).</div><div class='row'><div class='column' style='border:3px solid grey'><p class='small'><strong>Motion Trial (&larr;)</strong></p></div><div class='column' style='border:3px solid green'><p class='small'><strong>(&rarr;) Color Trial</strong></p></div></div><div><div style='float: center;'><img src='/static/images/triangle.png'></img></div></div><div style='width: 700px; height: 100px;'><div style='float: center; color: grey'>Filler</div></div>"", ""practice"": true, ""condition"": ""1"", ""time_elapsed"": 595302, ""correct_choice"": 39, ""phase1_counterbalance"": 1, ""cue"": ""triangle"", ""key_press"": null, ""swap"": false, ""uniqueId"": ""debugJ82PY0:debugMX4MY8"", ""internal_node_id"": ""0.0-43.0-1.2"", ""phase2_counterbalance"": 0, ""trial_index"": 70}"
debugJ82PY0:debugMX4MY8,71,1542862593288,"{""rt"": null, ""trial_type"": ""html-keyboard-response"", ""sequence"": 5, ""stimulus"": ""<div style=\""float: center; font-size:60px; color:black;\"">+</div>"", ""phase1_counterbalance"": 1, ""internal_node_id"": ""0.0-43.0-2.2"", ""time_elapsed"": 596006, ""key_press"": null, ""condition"": ""1"", ""uniqueId"": ""debugJ82PY0:debugMX4MY8"", ""phase2_counterbalance"": 0, ""trial_index"": 71}"
debugJ82PY0:debugMX4MY8,72,1542862594423,"{""rt"": 1130, ""trial_type"": ""html-keyboard-response"", ""task"": ""motion"", ""sequence"": 5, ""stimulus"": ""<div style='color:white'; class='row'>The square cues a motion trial (press the left arrow key).</div><div class='row'><div class='column' style='border:3px solid grey'><p class='small'><strong>Motion Trial (&larr;)</strong></p></div><div class='column' style='border:3px solid grey'><p class='small'><strong>(&rarr;) Color Trial</strong></p></div></div><div><div style='float: center;'><img src='/static/images/square.png'></img></div></div><div style='width: 700px; height: 100px;'><div style='float: center; color: grey'>Filler</div></div>"", ""practice"": true, ""condition"": ""1"", ""time_elapsed"": 597141, ""correct_choice"": 37, ""correct"": true, ""phase1_counterbalance"": 1, ""cue"": ""square"", ""key_press"": 37, ""swap"": false, ""uniqueId"": ""debugJ82PY0:debugMX4MY8"", ""internal_node_id"": ""0.0-43.0-0.3"", ""phase2_counterbalance"": 0, ""trial_index"": 72}"
debugJ82PY0:debugMX4MY8,73,1542862597930,"{""rt"": null, ""trial_type"": ""html-keyboard-response"", ""task"": ""motion"", ""sequence"": 5, ""stimulus"": ""<div style='color:white'; class='row'>The square cues a motion trial (press the left arrow key).</div><div class='row'><div class='column' style='border:3px solid green'><p class='small'><strong>Motion Trial (&larr;)</strong></p></div><div class='column' style='border:3px solid grey'><p class='small'><strong>(&rarr;) Color Trial</strong></p></div></div><div><div style='float: center;'><img src='/static/images/square.png'></img></div></div><div style='width: 700px; height: 100px;'><div style='float: center; color: grey'>Filler</div></div>"", ""practice"": true, ""condition"": ""1"", ""time_elapsed"": 600649, ""correct_choice"": 37, ""phase1_counterbalance"": 1, ""cue"": ""square"", ""key_press"": null, ""swap"": false, ""uniqueId"": ""debugJ82PY0:debugMX4MY8"", ""internal_node_id"": ""0.0-43.0-1.3"", ""phase2_counterbalance"": 0, ""trial_index"": 73}"
debugJ82PY0:debugMX4MY8,74,1542862598634,"{""rt"": null, ""trial_type"": ""html-keyboard-response"", ""sequence"": 5, ""stimulus"": ""<div style=\""float: center; font-size:60px; color:black;\"">+</div>"", ""phase1_counterbalance"": 1, ""internal_node_id"": ""0.0-43.0-2.3"", ""time_elapsed"": 601353, ""key_press"": null, ""condition"": ""1"", ""uniqueId"": ""debugJ82PY0:debugMX4MY8"", ""phase2_counterbalance"": 0, ""trial_index"": 74}"
debugJ82PY0:debugMX4MY8,75,1542862599927,"{""rt"": 1288, ""trial_type"": ""html-keyboard-response"", ""task"": ""motion"", ""sequence"": 5, ""stimulus"": ""<div style='color:white'; class='row'>The diamond cues a motion trial (press the right arrow key).</div><div class='row'><div class='column' style='border:3px solid grey'><p class='small'><strong>Color Trial (&larr;)</strong></p></div><div class='column' style='border:3px solid grey'><p class='small'><strong>(&rarr;) Motion Trial</strong></p></div></div><div><div style='float: center;'><img src='/static/images/diamond.png'></img></div></div><div style='width: 700px; height: 100px;'><div style='float: center; color: grey'>Filler</div></div>"", ""practice"": true, ""condition"": ""1"", ""time_elapsed"": 602645, ""correct_choice"": 39, ""correct"": true, ""phase1_counterbalance"": 1, ""cue"": ""diamond"", ""key_press"": 39, ""swap"": true, ""uniqueId"": ""debugJ82PY0:debugMX4MY8"", ""internal_node_id"": ""0.0-43.0-0.4"", ""phase2_counterbalance"": 0, ""trial_index"": 75}"
debugJ82PY0:debugMX4MY8,76,1542862603433,"{""rt"": null, ""trial_type"": ""html-keyboard-response"", ""task"": ""motion"", ""sequence"": 5, ""stimulus"": ""<div style='color:white'; class='row'>The diamond cues a motion trial (press the right arrow key).</div><div class='row'><div class='column' style='border:3px solid grey'><p class='small'><strong>Color Trial (&larr;)</strong></p></div><div class='column' style='border:3px solid green'><p class='small'><strong>(&rarr;) Motion Trial</strong></p></div></div><div><div style='float: center;'><img src='/static/images/diamond.png'></img></div></div><div style='width: 700px; height: 100px;'><div style='float: center; color: grey'>Filler</div></div>"", ""practice"": true, ""condition"": ""1"", ""time_elapsed"": 606152, ""correct_choice"": 39, ""phase1_counterbalance"": 1, ""cue"": ""diamond"", ""key_press"": null, ""swap"": true, ""uniqueId"": ""debugJ82PY0:debugMX4MY8"", ""internal_node_id"": ""0.0-43.0-1.4"", ""phase2_counterbalance"": 0, ""trial_index"": 76}"
debugJ82PY0:debugMX4MY8,77,1542862604147,"{""rt"": null, ""trial_type"": ""html-keyboard-response"", ""sequence"": 5, ""stimulus"": ""<div style=\""float: center; font-size:60px; color:black;\"">+</div>"", ""phase1_counterbalance"": 1, ""internal_node_id"": ""0.0-43.0-2.4"", ""time_elapsed"": 606866, ""key_press"": null, ""condition"": ""1"", ""uniqueId"": ""debugJ82PY0:debugMX4MY8"", ""phase2_counterbalance"": 0, ""trial_index"": 77}"
debugJ82PY0:debugMX4MY8,78,1542862605406,"{""rt"": 1254, ""trial_type"": ""html-keyboard-response"", ""task"": ""color"", ""sequence"": 5, ""stimulus"": ""<div style='color:white'; class='row'>The triangle cues a color trial (press the left arrow key).</div><div class='row'><div class='column' style='border:3px solid grey'><p class='small'><strong>Color Trial (&larr;)</strong></p></div><div class='column' style='border:3px solid grey'><p class='small'><strong>(&rarr;) Motion Trial</strong></p></div></div><div><div style='float: center;'><img src='/static/images/triangle.png'></img></div></div><div style='width: 700px; height: 100px;'><div style='float: center; color: grey'>Filler</div></div>"", ""practice"": true, ""condition"": ""1"", ""time_elapsed"": 608125, ""correct_choice"": 37, ""correct"": true, ""phase1_counterbalance"": 1, ""cue"": ""triangle"", ""key_press"": 37, ""swap"": true, ""uniqueId"": ""debugJ82PY0:debugMX4MY8"", ""internal_node_id"": ""0.0-43.0-0.5"", ""phase2_counterbalance"": 0, ""trial_index"": 78}"
debugJ82PY0:debugMX4MY8,79,1542862608913,"{""rt"": null, ""trial_type"": ""html-keyboard-response"", ""task"": ""color"", ""sequence"": 5, ""stimulus"": ""<div style='color:white'; class='row'>The triangle cues a color trial (press the left arrow key).</div><div class='row'><div class='column' style='border:3px solid green'><p class='small'><strong>Color Trial (&larr;)</strong></p></div><div class='column' style='border:3px solid grey'><p class='small'><strong>(&rarr;) Motion Trial</strong></p></div></div><div><div style='float: center;'><img src='/static/images/triangle.png'></img></div></div><div style='width: 700px; height: 100px;'><div style='float: center; color: grey'>Filler</div></div>"", ""practice"": true, ""condition"": ""1"", ""time_elapsed"": 611632, ""correct_choice"": 37, ""phase1_counterbalance"": 1, ""cue"": ""triangle"", ""key_press"": null, ""swap"": true, ""uniqueId"": ""debugJ82PY0:debugMX4MY8"", ""internal_node_id"": ""0.0-43.0-1.5"", ""phase2_counterbalance"": 0, ""trial_index"": 79}"
debugJ82PY0:debugMX4MY8,80,1542862609618,"{""rt"": null, ""trial_type"": ""html-keyboard-response"", ""sequence"": 5, ""stimulus"": ""<div style=\""float: center; font-size:60px; color:black;\"">+</div>"", ""phase1_counterbalance"": 1, ""internal_node_id"": ""0.0-43.0-2.5"", ""time_elapsed"": 612337, ""key_press"": null, ""condition"": ""1"", ""uniqueId"": ""debugJ82PY0:debugMX4MY8"", ""phase2_counterbalance"": 0, ""trial_index"": 80}"
debugJ82PY0:debugMX4MY8,81,1542862610471,"{""rt"": 848, ""trial_type"": ""html-keyboard-response"", ""task"": ""color"", ""sequence"": 5, ""stimulus"": ""<div style='color:white'; class='row'>The circle cues a color trial (press the right arrow key).</div><div class='row'><div class='column' style='border:3px solid grey'><p class='small'><strong>Motion Trial (&larr;)</strong></p></div><div class='column' style='border:3px solid grey'><p class='small'><strong>(&rarr;) Color Trial</strong></p></div></div><div><div style='float: center;'><img src='/static/images/circle.png'></img></div></div><div style='width: 700px; height: 100px;'><div style='float: center; color: grey'>Filler</div></div>"", ""practice"": true, ""condition"": ""1"", ""time_elapsed"": 613189, ""correct_choice"": 39, ""correct"": true, ""phase1_counterbalance"": 1, ""cue"": ""circle"", ""key_press"": 39, ""swap"": false, ""uniqueId"": ""debugJ82PY0:debugMX4MY8"", ""internal_node_id"": ""0.0-43.0-0.6"", ""phase2_counterbalance"": 0, ""trial_index"": 81}"
debugJ82PY0:debugMX4MY8,82,1542862613978,"{""rt"": null, ""trial_type"": ""html-keyboard-response"", ""task"": ""color"", ""sequence"": 5, ""stimulus"": ""<div style='color:white'; class='row'>The circle cues a color trial (press the right arrow key).</div><div class='row'><div class='column' style='border:3px solid grey'><p class='small'><strong>Motion Trial (&larr;)</strong></p></div><div class='column' style='border:3px solid green'><p class='small'><strong>(&rarr;) Color Trial</strong></p></div></div><div><div style='float: center;'><img src='/static/images/circle.png'></img></div></div><div style='width: 700px; height: 100px;'><div style='float: center; color: grey'>Filler</div></div>"", ""practice"": true, ""condition"": ""1"", ""time_elapsed"": 616697, ""correct_choice"": 39, ""phase1_counterbalance"": 1, ""cue"": ""circle"", ""key_press"": null, ""swap"": false, ""uniqueId"": ""debugJ82PY0:debugMX4MY8"", ""internal_node_id"": ""0.0-43.0-1.6"", ""phase2_counterbalance"": 0, ""trial_index"": 82}"
debugJ82PY0:debugMX4MY8,83,1542862614682,"{""rt"": null, ""trial_type"": ""html-keyboard-response"", ""sequence"": 5, ""stimulus"": ""<div style=\""float: center; font-size:60px; color:black;\"">+</div>"", ""phase1_counterbalance"": 1, ""internal_node_id"": ""0.0-43.0-2.6"", ""time_elapsed"": 617400, ""key_press"": null, ""condition"": ""1"", ""uniqueId"": ""debugJ82PY0:debugMX4MY8"", ""phase2_counterbalance"": 0, ""trial_index"": 83}"
debugJ82PY0:debugMX4MY8,84,1542862616186,"{""rt"": 1500, ""trial_type"": ""html-keyboard-response"", ""task"": ""color"", ""sequence"": 5, ""stimulus"": ""<div style='color:white'; class='row'>The circle cues a color trial (press the left arrow key).</div><div class='row'><div class='column' style='border:3px solid grey'><p class='small'><strong>Color Trial (&larr;)</strong></p></div><div class='column' style='border:3px solid grey'><p class='small'><strong>(&rarr;) Motion Trial</strong></p></div></div><div><div style='float: center;'><img src='/static/images/circle.png'></img></div></div><div style='width: 700px; height: 100px;'><div style='float: center; color: grey'>Filler</div></div>"", ""practice"": true, ""condition"": ""1"", ""time_elapsed"": 618905, ""correct_choice"": 37, ""correct"": true, ""phase1_counterbalance"": 1, ""cue"": ""circle"", ""key_press"": 37, ""swap"": true, ""uniqueId"": ""debugJ82PY0:debugMX4MY8"", ""internal_node_id"": ""0.0-43.0-0.7"", ""phase2_counterbalance"": 0, ""trial_index"": 84}"
debugJ82PY0:debugMX4MY8,85,1542862619694,"{""rt"": null, ""trial_type"": ""html-keyboard-response"", ""task"": ""color"", ""sequence"": 5, ""stimulus"": ""<div style='color:white'; class='row'>The circle cues a color trial (press the left arrow key).</div><div class='row'><div class='column' style='border:3px solid green'><p class='small'><strong>Color Trial (&larr;)</strong></p></div><div class='column' style='border:3px solid grey'><p class='small'><strong>(&rarr;) Motion Trial</strong></p></div></div><div><div style='float: center;'><img src='/static/images/circle.png'></img></div></div><div style='width: 700px; height: 100px;'><div style='float: center; color: grey'>Filler</div></div>"", ""practice"": true, ""condition"": ""1"", ""time_elapsed"": 622413, ""correct_choice"": 37, ""phase1_counterbalance"": 1, ""cue"": ""circle"", ""key_press"": null, ""swap"": true, ""uniqueId"": ""debugJ82PY0:debugMX4MY8"", ""internal_node_id"": ""0.0-43.0-1.7"", ""phase2_counterbalance"": 0, ""trial_index"": 85}"
debugJ82PY0:debugMX4MY8,86,1542862620398,"{""rt"": null, ""trial_type"": ""html-keyboard-response"", ""sequence"": 5, ""stimulus"": ""<div style=\""float: center; font-size:60px; color:black;\"">+</div>"", ""phase1_counterbalance"": 1, ""internal_node_id"": ""0.0-43.0-2.7"", ""time_elapsed"": 623117, ""key_press"": null, ""condition"": ""1"", ""uniqueId"": ""debugJ82PY0:debugMX4MY8"", ""phase2_counterbalance"": 0, ""trial_index"": 86}"
debugJ82PY0:debugMX4MY8,87,1542862657736,"{""rt"": 37329, ""trial_type"": ""instructions"", ""view_history"": ""[{\""page_index\"":0,\""viewing_time\"":24809},{\""page_index\"":1,\""viewing_time\"":12519}]"", ""sequence"": 5, ""phase1_counterbalance"": 1, ""internal_node_id"": ""0.0-44.0"", ""time_elapsed"": 660448, ""condition"": ""1"", ""uniqueId"": ""debugJ82PY0:debugMX4MY8"", ""phase2_counterbalance"": 0, ""trial_index"": 87}"
debugJ82PY0:debugMX4MY8,88,1542862659879,"{""rt"": 1135, ""trial_type"": ""html-keyboard-response"", ""task"": ""color"", ""sequence"": 5, ""stimulus"": ""<div style='color:grey'; class='row'>-</div><div class='row'><div class='column' style='border:3px solid grey'><p class='small'><strong>Motion Trial (&larr;)</strong></p></div><div class='column' style='border:3px solid grey'><p class='small'><strong>(&rarr;) Color Trial</strong></p></div></div><div><div style='float: center;'><img src='/static/images/triangle.png'></img></div></div><div style='width: 700px; height: 100px;'><div style='float: center; color: grey'>Filler</div></div>"", ""practice"": false, ""condition"": ""1"", ""time_elapsed"": 662597, ""correct_choice"": 39, ""correct"": true, ""phase1_counterbalance"": 1, ""cue"": ""triangle"", ""key_press"": 39, ""swap"": false, ""uniqueId"": ""debugJ82PY0:debugMX4MY8"", ""internal_node_id"": ""0.0-45.0-0.0"", ""phase2_counterbalance"": 0, ""trial_index"": 88}"
debugJ82PY0:debugMX4MY8,89,1542862661384,"{""rt"": null, ""trial_type"": ""html-keyboard-response"", ""task"": ""color"", ""sequence"": 5, ""stimulus"": ""<div style='color:grey'; class='row'>-</div><div class='row'><div class='column' style='border:3px solid grey'><p class='small'><strong>Motion Trial (&larr;)</strong></p></div><div class='column' style='border:3px solid green'><p class='small'><strong>(&rarr;) Color Trial</strong></p></div></div><div><div style='float: center;'><img src='/static/images/triangle.png'></img></div></div><div style='width: 700px; height: 100px;'><div style='float: center; color: grey'>Filler</div></div>"", ""practice"": false, ""condition"": ""1"", ""time_elapsed"": 664103, ""correct_choice"": 39, ""phase1_counterbalance"": 1, ""cue"": ""triangle"", ""key_press"": null, ""swap"": false, ""uniqueId"": ""debugJ82PY0:debugMX4MY8"", ""internal_node_id"": ""0.0-45.0-1.0"", ""phase2_counterbalance"": 0, ""trial_index"": 89}"
debugJ82PY0:debugMX4MY8,90,1542862662088,"{""rt"": null, ""trial_type"": ""html-keyboard-response"", ""sequence"": 5, ""stimulus"": ""<div style=\""float: center; font-size:60px; color:black;\"">+</div>"", ""phase1_counterbalance"": 1, ""internal_node_id"": ""0.0-45.0-2.0"", ""time_elapsed"": 664806, ""key_press"": null, ""condition"": ""1"", ""uniqueId"": ""debugJ82PY0:debugMX4MY8"", ""phase2_counterbalance"": 0, ""trial_index"": 90}"
debugJ82PY0:debugMX4MY8,91,1542862663092,"{""rt"": 999, ""trial_type"": ""html-keyboard-response"", ""task"": ""motion"", ""sequence"": 5, ""stimulus"": ""<div style='color:grey'; class='row'>-</div><div class='row'><div class='column' style='border:3px solid grey'><p class='small'><strong>Motion Trial (&larr;)</strong></p></div><div class='column' style='border:3px solid grey'><p class='small'><strong>(&rarr;) Color Trial</strong></p></div></div><div><div style='float: center;'><img src='/static/images/square.png'></img></div></div><div style='width: 700px; height: 100px;'><div style='float: center; color: grey'>Filler</div></div>"", ""practice"": false, ""condition"": ""1"", ""time_elapsed"": 665810, ""correct_choice"": 37, ""correct"": true, ""phase1_counterbalance"": 1, ""cue"": ""square"", ""key_press"": 37, ""swap"": false, ""uniqueId"": ""debugJ82PY0:debugMX4MY8"", ""internal_node_id"": ""0.0-45.1-0.1"", ""phase2_counterbalance"": 0, ""trial_index"": 91}"
debugJ82PY0:debugMX4MY8,92,1542862664599,"{""rt"": null, ""trial_type"": ""html-keyboard-response"", ""task"": ""motion"", ""sequence"": 5, ""stimulus"": ""<div style='color:grey'; class='row'>-</div><div class='row'><div class='column' style='border:3px solid green'><p class='small'><strong>Motion Trial (&larr;)</strong></p></div><div class='column' style='border:3px solid grey'><p class='small'><strong>(&rarr;) Color Trial</strong></p></div></div><div><div style='float: center;'><img src='/static/images/square.png'></img></div></div><div style='width: 700px; height: 100px;'><div style='float: center; color: grey'>Filler</div></div>"", ""practice"": false, ""condition"": ""1"", ""time_elapsed"": 667318, ""correct_choice"": 37, ""phase1_counterbalance"": 1, ""cue"": ""square"", ""key_press"": null, ""swap"": false, ""uniqueId"": ""debugJ82PY0:debugMX4MY8"", ""internal_node_id"": ""0.0-45.1-1.1"", ""phase2_counterbalance"": 0, ""trial_index"": 92}"
debugJ82PY0:debugMX4MY8,93,1542862665306,"{""rt"": null, ""trial_type"": ""html-keyboard-response"", ""sequence"": 5, ""stimulus"": ""<div style=\""float: center; font-size:60px; color:black;\"">+</div>"", ""phase1_counterbalance"": 1, ""internal_node_id"": ""0.0-45.1-2.1"", ""time_elapsed"": 668025, ""key_press"": null, ""condition"": ""1"", ""uniqueId"": ""debugJ82PY0:debugMX4MY8"", ""phase2_counterbalance"": 0, ""trial_index"": 93}"
debugJ82PY0:debugMX4MY8,94,1542862666212,"{""rt"": 902, ""trial_type"": ""html-keyboard-response"", ""task"": ""color"", ""sequence"": 5, ""stimulus"": ""<div style='color:grey'; class='row'>-</div><div class='row'><div class='column' style='border:3px solid grey'><p class='small'><strong>Motion Trial (&larr;)</strong></p></div><div class='column' style='border:3px solid grey'><p class='small'><strong>(&rarr;) Color Trial</strong></p></div></div><div><div style='float: center;'><img src='/static/images/triangle.png'></img></div></div><div style='width: 700px; height: 100px;'><div style='float: center; color: grey'>Filler</div></div>"", ""practice"": false, ""condition"": ""1"", ""time_elapsed"": 668931, ""correct_choice"": 39, ""correct"": true, ""phase1_counterbalance"": 1, ""cue"": ""triangle"", ""key_press"": 39, ""swap"": false, ""uniqueId"": ""debugJ82PY0:debugMX4MY8"", ""internal_node_id"": ""0.0-45.2-0.2"", ""phase2_counterbalance"": 0, ""trial_index"": 94}"
debugJ82PY0:debugMX4MY8,95,1542862667720,"{""rt"": null, ""trial_type"": ""html-keyboard-response"", ""task"": ""color"", ""sequence"": 5, ""stimulus"": ""<div style='color:grey'; class='row'>-</div><div class='row'><div class='column' style='border:3px solid grey'><p class='small'><strong>Motion Trial (&larr;)</strong></p></div><div class='column' style='border:3px solid green'><p class='small'><strong>(&rarr;) Color Trial</strong></p></div></div><div><div style='float: center;'><img src='/static/images/triangle.png'></img></div></div><div style='width: 700px; height: 100px;'><div style='float: center; color: grey'>Filler</div></div>"", ""practice"": false, ""condition"": ""1"", ""time_elapsed"": 670439, ""correct_choice"": 39, ""phase1_counterbalance"": 1, ""cue"": ""triangle"", ""key_press"": null, ""swap"": false, ""uniqueId"": ""debugJ82PY0:debugMX4MY8"", ""internal_node_id"": ""0.0-45.2-1.2"", ""phase2_counterbalance"": 0, ""trial_index"": 95}"
debugJ82PY0:debugMX4MY8,96,1542862668425,"{""rt"": null, ""trial_type"": ""html-keyboard-response"", ""sequence"": 5, ""stimulus"": ""<div style=\""float: center; font-size:60px; color:black;\"">+</div>"", ""phase1_counterbalance"": 1, ""internal_node_id"": ""0.0-45.2-2.2"", ""time_elapsed"": 671144, ""key_press"": null, ""condition"": ""1"", ""uniqueId"": ""debugJ82PY0:debugMX4MY8"", ""phase2_counterbalance"": 0, ""trial_index"": 96}"
debugJ82PY0:debugMX4MY8,97,1542862669477,"{""rt"": 1047, ""trial_type"": ""html-keyboard-response"", ""task"": ""color"", ""sequence"": 5, ""stimulus"": ""<div style='color:grey'; class='row'>-</div><div class='row'><div class='column' style='border:3px solid grey'><p class='small'><strong>Color Trial (&larr;)</strong></p></div><div class='column' style='border:3px solid grey'><p class='small'><strong>(&rarr;) Motion Trial</strong></p></div></div><div><div style='float: center;'><img src='/static/images/circle.png'></img></div></div><div style='width: 700px; height: 100px;'><div style='float: center; color: grey'>Filler</div></div>"", ""practice"": false, ""condition"": ""1"", ""time_elapsed"": 672195, ""correct_choice"": 37, ""correct"": true, ""phase1_counterbalance"": 1, ""cue"": ""circle"", ""key_press"": 37, ""swap"": true, ""uniqueId"": ""debugJ82PY0:debugMX4MY8"", ""internal_node_id"": ""0.0-45.3-0.3"", ""phase2_counterbalance"": 0, ""trial_index"": 97}"
debugJ82PY0:debugMX4MY8,98,1542862670983,"{""rt"": null, ""trial_type"": ""html-keyboard-response"", ""task"": ""color"", ""sequence"": 5, ""stimulus"": ""<div style='color:grey'; class='row'>-</div><div class='row'><div class='column' style='border:3px solid green'><p class='small'><strong>Color Trial (&larr;)</strong></p></div><div class='column' style='border:3px solid grey'><p class='small'><strong>(&rarr;) Motion Trial</strong></p></div></div><div><div style='float: center;'><img src='/static/images/circle.png'></img></div></div><div style='width: 700px; height: 100px;'><div style='float: center; color: grey'>Filler</div></div>"", ""practice"": false, ""condition"": ""1"", ""time_elapsed"": 673702, ""correct_choice"": 37, ""phase1_counterbalance"": 1, ""cue"": ""circle"", ""key_press"": null, ""swap"": true, ""uniqueId"": ""debugJ82PY0:debugMX4MY8"", ""internal_node_id"": ""0.0-45.3-1.3"", ""phase2_counterbalance"": 0, ""trial_index"": 98}"
debugJ82PY0:debugMX4MY8,99,1542862671690,"{""rt"": null, ""trial_type"": ""html-keyboard-response"", ""sequence"": 5, ""stimulus"": ""<div style=\""float: center; font-size:60px; color:black;\"">+</div>"", ""phase1_counterbalance"": 1, ""internal_node_id"": ""0.0-45.3-2.3"", ""time_elapsed"": 674409, ""key_press"": null, ""condition"": ""1"", ""uniqueId"": ""debugJ82PY0:debugMX4MY8"", ""phase2_counterbalance"": 0, ""trial_index"": 99}"
debugJ82PY0:debugMX4MY8,100,1542862672849,"{""rt"": 1154, ""trial_type"": ""html-keyboard-response"", ""task"": ""color"", ""sequence"": 5, ""stimulus"": ""<div style='color:grey'; class='row'>-</div><div class='row'><div class='column' style='border:3px solid grey'><p class='small'><strong>Motion Trial (&larr;)</strong></p></div><div class='column' style='border:3px solid grey'><p class='small'><strong>(&rarr;) Color Trial</strong></p></div></div><div><div style='float: center;'><img src='/static/images/circle.png'></img></div></div><div style='width: 700px; height: 100px;'><div style='float: center; color: grey'>Filler</div></div>"", ""practice"": false, ""condition"": ""1"", ""time_elapsed"": 675568, ""correct_choice"": 39, ""correct"": true, ""phase1_counterbalance"": 1, ""cue"": ""circle"", ""key_press"": 39, ""swap"": false, ""uniqueId"": ""debugJ82PY0:debugMX4MY8"", ""internal_node_id"": ""0.0-45.4-0.4"", ""phase2_counterbalance"": 0, ""trial_index"": 100}"
debugJ82PY0:debugMX4MY8,101,1542862676604,"{""rt"": null, ""trial_type"": ""html-keyboard-response"", ""task"": ""color"", ""sequence"": 5, ""stimulus"": ""<div class='row'>You need 13 more correct trials to move on!</div><div class='row'><div class='column' style='border:3px solid grey'><p class='small'><strong>Motion Trial (&larr;)</strong></p></div><div class='column' style='border:3px solid green'><p class='small'><strong>(&rarr;) Color Trial</strong></p></div></div><div><div style='float: center;'><img src='/static/images/circle.png'></img></div></div><div style='width: 700px; height: 100px;'><div style='float: center; color: grey'>Filler</div></div>"", ""practice"": false, ""condition"": ""1"", ""time_elapsed"": 679323, ""correct_choice"": 39, ""phase1_counterbalance"": 1, ""cue"": ""circle"", ""key_press"": null, ""swap"": false, ""uniqueId"": ""debugJ82PY0:debugMX4MY8"", ""internal_node_id"": ""0.0-45.4-1.4"", ""phase2_counterbalance"": 0, ""trial_index"": 101}"
debugJ82PY0:debugMX4MY8,102,1542862677308,"{""rt"": null, ""trial_type"": ""html-keyboard-response"", ""sequence"": 5, ""stimulus"": ""<div style=\""float: center; font-size:60px; color:black;\"">+</div>"", ""phase1_counterbalance"": 1, ""internal_node_id"": ""0.0-45.4-2.4"", ""time_elapsed"": 680027, ""key_press"": null, ""condition"": ""1"", ""uniqueId"": ""debugJ82PY0:debugMX4MY8"", ""phase2_counterbalance"": 0, ""trial_index"": 102}"
debugJ82PY0:debugMX4MY8,103,1542862678194,"{""rt"": 881, ""trial_type"": ""html-keyboard-response"", ""task"": ""color"", ""sequence"": 5, ""stimulus"": ""<div style='color:grey'; class='row'>-</div><div class='row'><div class='column' style='border:3px solid grey'><p class='small'><strong>Motion Trial (&larr;)</strong></p></div><div class='column' style='border:3px solid grey'><p class='small'><strong>(&rarr;) Color Trial</strong></p></div></div><div><div style='float: center;'><img src='/static/images/circle.png'></img></div></div><div style='width: 700px; height: 100px;'><div style='float: center; color: grey'>Filler</div></div>"", ""practice"": false, ""condition"": ""1"", ""time_elapsed"": 680913, ""correct_choice"": 39, ""correct"": true, ""phase1_counterbalance"": 1, ""cue"": ""circle"", ""key_press"": 39, ""swap"": false, ""uniqueId"": ""debugJ82PY0:debugMX4MY8"", ""internal_node_id"": ""0.0-45.5-0.5"", ""phase2_counterbalance"": 0, ""trial_index"": 103}"
debugJ82PY0:debugMX4MY8,104,1542862679700,"{""rt"": null, ""trial_type"": ""html-keyboard-response"", ""task"": ""color"", ""sequence"": 5, ""stimulus"": ""<div style='color:grey'; class='row'>-</div><div class='row'><div class='column' style='border:3px solid grey'><p class='small'><strong>Motion Trial (&larr;)</strong></p></div><div class='column' style='border:3px solid green'><p class='small'><strong>(&rarr;) Color Trial</strong></p></div></div><div><div style='float: center;'><img src='/static/images/circle.png'></img></div></div><div style='width: 700px; height: 100px;'><div style='float: center; color: grey'>Filler</div></div>"", ""practice"": false, ""condition"": ""1"", ""time_elapsed"": 682419, ""correct_choice"": 39, ""phase1_counterbalance"": 1, ""cue"": ""circle"", ""key_press"": null, ""swap"": false, ""uniqueId"": ""debugJ82PY0:debugMX4MY8"", ""internal_node_id"": ""0.0-45.5-1.5"", ""phase2_counterbalance"": 0, ""trial_index"": 104}"
debugJ82PY0:debugMX4MY8,105,1542862680404,"{""rt"": null, ""trial_type"": ""html-keyboard-response"", ""sequence"": 5, ""stimulus"": ""<div style=\""float: center; font-size:60px; color:black;\"">+</div>"", ""phase1_counterbalance"": 1, ""internal_node_id"": ""0.0-45.5-2.5"", ""time_elapsed"": 683123, ""key_press"": null, ""condition"": ""1"", ""uniqueId"": ""debugJ82PY0:debugMX4MY8"", ""phase2_counterbalance"": 0, ""trial_index"": 105}"
debugJ82PY0:debugMX4MY8,106,1542862681333,"{""rt"": 923, ""trial_type"": ""html-keyboard-response"", ""task"": ""motion"", ""sequence"": 5, ""stimulus"": ""<div style='color:grey'; class='row'>-</div><div class='row'><div class='column' style='border:3px solid grey'><p class='small'><strong>Motion Trial (&larr;)</strong></p></div><div class='column' style='border:3px solid grey'><p class='small'><strong>(&rarr;) Color Trial</strong></p></div></div><div><div style='float: center;'><img src='/static/images/square.png'></img></div></div><div style='width: 700px; height: 100px;'><div style='float: center; color: grey'>Filler</div></div>"", ""practice"": false, ""condition"": ""1"", ""time_elapsed"": 684052, ""correct_choice"": 37, ""correct"": true, ""phase1_counterbalance"": 1, ""cue"": ""square"", ""key_press"": 37, ""swap"": false, ""uniqueId"": ""debugJ82PY0:debugMX4MY8"", ""internal_node_id"": ""0.0-45.6-0.6"", ""phase2_counterbalance"": 0, ""trial_index"": 106}"
debugJ82PY0:debugMX4MY8,107,1542862682838,"{""rt"": null, ""trial_type"": ""html-keyboard-response"", ""task"": ""motion"", ""sequence"": 5, ""stimulus"": ""<div style='color:grey'; class='row'>-</div><div class='row'><div class='column' style='border:3px solid green'><p class='small'><strong>Motion Trial (&larr;)</strong></p></div><div class='column' style='border:3px solid grey'><p class='small'><strong>(&rarr;) Color Trial</strong></p></div></div><div><div style='float: center;'><img src='/static/images/square.png'></img></div></div><div style='width: 700px; height: 100px;'><div style='float: center; color: grey'>Filler</div></div>"", ""practice"": false, ""condition"": ""1"", ""time_elapsed"": 685557, ""correct_choice"": 37, ""phase1_counterbalance"": 1, ""cue"": ""square"", ""key_press"": null, ""swap"": false, ""uniqueId"": ""debugJ82PY0:debugMX4MY8"", ""internal_node_id"": ""0.0-45.6-1.6"", ""phase2_counterbalance"": 0, ""trial_index"": 107}"
debugJ82PY0:debugMX4MY8,108,1542862683543,"{""rt"": null, ""trial_type"": ""html-keyboard-response"", ""sequence"": 5, ""stimulus"": ""<div style=\""float: center; font-size:60px; color:black;\"">+</div>"", ""phase1_counterbalance"": 1, ""internal_node_id"": ""0.0-45.6-2.6"", ""time_elapsed"": 686262, ""key_press"": null, ""condition"": ""1"", ""uniqueId"": ""debugJ82PY0:debugMX4MY8"", ""phase2_counterbalance"": 0, ""trial_index"": 108}"
debugJ82PY0:debugMX4MY8,109,1542862684543,"{""rt"": 996, ""trial_type"": ""html-keyboard-response"", ""task"": ""motion"", ""sequence"": 5, ""stimulus"": ""<div style='color:grey'; class='row'>-</div><div class='row'><div class='column' style='border:3px solid grey'><p class='small'><strong>Color Trial (&larr;)</strong></p></div><div class='column' style='border:3px solid grey'><p class='small'><strong>(&rarr;) Motion Trial</strong></p></div></div><div><div style='float: center;'><img src='/static/images/square.png'></img></div></div><div style='width: 700px; height: 100px;'><div style='float: center; color: grey'>Filler</div></div>"", ""practice"": false, ""condition"": ""1"", ""time_elapsed"": 687262, ""correct_choice"": 39, ""correct"": true, ""phase1_counterbalance"": 1, ""cue"": ""square"", ""key_press"": 39, ""swap"": true, ""uniqueId"": ""debugJ82PY0:debugMX4MY8"", ""internal_node_id"": ""0.0-45.7-0.7"", ""phase2_counterbalance"": 0, ""trial_index"": 109}"
debugJ82PY0:debugMX4MY8,110,1542862686049,"{""rt"": null, ""trial_type"": ""html-keyboard-response"", ""task"": ""motion"", ""sequence"": 5, ""stimulus"": ""<div style='color:grey'; class='row'>-</div><div class='row'><div class='column' style='border:3px solid grey'><p class='small'><strong>Color Trial (&larr;)</strong></p></div><div class='column' style='border:3px solid green'><p class='small'><strong>(&rarr;) Motion Trial</strong></p></div></div><div><div style='float: center;'><img src='/static/images/square.png'></img></div></div><div style='width: 700px; height: 100px;'><div style='float: center; color: grey'>Filler</div></div>"", ""practice"": false, ""condition"": ""1"", ""time_elapsed"": 688768, ""correct_choice"": 39, ""phase1_counterbalance"": 1, ""cue"": ""square"", ""key_press"": null, ""swap"": true, ""uniqueId"": ""debugJ82PY0:debugMX4MY8"", ""internal_node_id"": ""0.0-45.7-1.7"", ""phase2_counterbalance"": 0, ""trial_index"": 110}"
debugJ82PY0:debugMX4MY8,111,1542862686756,"{""rt"": null, ""trial_type"": ""html-keyboard-response"", ""sequence"": 5, ""stimulus"": ""<div style=\""float: center; font-size:60px; color:black;\"">+</div>"", ""phase1_counterbalance"": 1, ""internal_node_id"": ""0.0-45.7-2.7"", ""time_elapsed"": 689473, ""key_press"": null, ""condition"": ""1"", ""uniqueId"": ""debugJ82PY0:debugMX4MY8"", ""phase2_counterbalance"": 0, ""trial_index"": 111}"
debugJ82PY0:debugMX4MY8,112,1542862688108,"{""rt"": 1347, ""trial_type"": ""html-keyboard-response"", ""task"": ""color"", ""sequence"": 5, ""stimulus"": ""<div style='color:grey'; class='row'>-</div><div class='row'><div class='column' style='border:3px solid grey'><p class='small'><strong>Motion Trial (&larr;)</strong></p></div><div class='column' style='border:3px solid grey'><p class='small'><strong>(&rarr;) Color Trial</strong></p></div></div><div><div style='float: center;'><img src='/static/images/circle.png'></img></div></div><div style='width: 700px; height: 100px;'><div style='float: center; color: grey'>Filler</div></div>"", ""practice"": false, ""condition"": ""1"", ""time_elapsed"": 690826, ""correct_choice"": 39, ""correct"": true, ""phase1_counterbalance"": 1, ""cue"": ""circle"", ""key_press"": 39, ""swap"": false, ""uniqueId"": ""debugJ82PY0:debugMX4MY8"", ""internal_node_id"": ""0.0-45.8-0.8"", ""phase2_counterbalance"": 0, ""trial_index"": 112}"
debugJ82PY0:debugMX4MY8,113,1542862689615,"{""rt"": null, ""trial_type"": ""html-keyboard-response"", ""task"": ""color"", ""sequence"": 5, ""stimulus"": ""<div style='color:grey'; class='row'>-</div><div class='row'><div class='column' style='border:3px solid grey'><p class='small'><strong>Motion Trial (&larr;)</strong></p></div><div class='column' style='border:3px solid green'><p class='small'><strong>(&rarr;) Color Trial</strong></p></div></div><div><div style='float: center;'><img src='/static/images/circle.png'></img></div></div><div style='width: 700px; height: 100px;'><div style='float: center; color: grey'>Filler</div></div>"", ""practice"": false, ""condition"": ""1"", ""time_elapsed"": 692334, ""correct_choice"": 39, ""phase1_counterbalance"": 1, ""cue"": ""circle"", ""key_press"": null, ""swap"": false, ""uniqueId"": ""debugJ82PY0:debugMX4MY8"", ""internal_node_id"": ""0.0-45.8-1.8"", ""phase2_counterbalance"": 0, ""trial_index"": 113}"
debugJ82PY0:debugMX4MY8,114,1542862690320,"{""rt"": null, ""trial_type"": ""html-keyboard-response"", ""sequence"": 5, ""stimulus"": ""<div style=\""float: center; font-size:60px; color:black;\"">+</div>"", ""phase1_counterbalance"": 1, ""internal_node_id"": ""0.0-45.8-2.8"", ""time_elapsed"": 693039, ""key_press"": null, ""condition"": ""1"", ""uniqueId"": ""debugJ82PY0:debugMX4MY8"", ""phase2_counterbalance"": 0, ""trial_index"": 114}"
debugJ82PY0:debugMX4MY8,115,1542862691686,"{""rt"": 1362, ""trial_type"": ""html-keyboard-response"", ""task"": ""motion"", ""sequence"": 5, ""stimulus"": ""<div style='color:grey'; class='row'>-</div><div class='row'><div class='column' style='border:3px solid grey'><p class='small'><strong>Color Trial (&larr;)</strong></p></div><div class='column' style='border:3px solid grey'><p class='small'><strong>(&rarr;) Motion Trial</strong></p></div></div><div><div style='float: center;'><img src='/static/images/diamond.png'></img></div></div><div style='width: 700px; height: 100px;'><div style='float: center; color: grey'>Filler</div></div>"", ""practice"": false, ""condition"": ""1"", ""time_elapsed"": 694405, ""correct_choice"": 39, ""correct"": true, ""phase1_counterbalance"": 1, ""cue"": ""diamond"", ""key_press"": 39, ""swap"": true, ""uniqueId"": ""debugJ82PY0:debugMX4MY8"", ""internal_node_id"": ""0.0-45.9-0.9"", ""phase2_counterbalance"": 0, ""trial_index"": 115}"
debugJ82PY0:debugMX4MY8,116,1542862695444,"{""rt"": null, ""trial_type"": ""html-keyboard-response"", ""task"": ""motion"", ""sequence"": 5, ""stimulus"": ""<div class='row'>You need 8 more correct trials to move on!</div><div class='row'><div class='column' style='border:3px solid grey'><p class='small'><strong>Color Trial (&larr;)</strong></p></div><div class='column' style='border:3px solid green'><p class='small'><strong>(&rarr;) Motion Trial</strong></p></div></div><div><div style='float: center;'><img src='/static/images/diamond.png'></img></div></div><div style='width: 700px; height: 100px;'><div style='float: center; color: grey'>Filler</div></div>"", ""practice"": false, ""condition"": ""1"", ""time_elapsed"": 698163, ""correct_choice"": 39, ""phase1_counterbalance"": 1, ""cue"": ""diamond"", ""key_press"": null, ""swap"": true, ""uniqueId"": ""debugJ82PY0:debugMX4MY8"", ""internal_node_id"": ""0.0-45.9-1.9"", ""phase2_counterbalance"": 0, ""trial_index"": 116}"
debugJ82PY0:debugMX4MY8,117,1542862696147,"{""rt"": null, ""trial_type"": ""html-keyboard-response"", ""sequence"": 5, ""stimulus"": ""<div style=\""float: center; font-size:60px; color:black;\"">+</div>"", ""phase1_counterbalance"": 1, ""internal_node_id"": ""0.0-45.9-2.9"", ""time_elapsed"": 698866, ""key_press"": null, ""condition"": ""1"", ""uniqueId"": ""debugJ82PY0:debugMX4MY8"", ""phase2_counterbalance"": 0, ""trial_index"": 117}"
debugJ82PY0:debugMX4MY8,118,1542862697095,"{""rt"": 944, ""trial_type"": ""html-keyboard-response"", ""task"": ""color"", ""sequence"": 5, ""stimulus"": ""<div style='color:grey'; class='row'>-</div><div class='row'><div class='column' style='border:3px solid grey'><p class='small'><strong>Color Trial (&larr;)</strong></p></div><div class='column' style='border:3px solid grey'><p class='small'><strong>(&rarr;) Motion Trial</strong></p></div></div><div><div style='float: center;'><img src='/static/images/circle.png'></img></div></div><div style='width: 700px; height: 100px;'><div style='float: center; color: grey'>Filler</div></div>"", ""practice"": false, ""condition"": ""1"", ""time_elapsed"": 699814, ""correct_choice"": 37, ""correct"": true, ""phase1_counterbalance"": 1, ""cue"": ""circle"", ""key_press"": 37, ""swap"": true, ""uniqueId"": ""debugJ82PY0:debugMX4MY8"", ""internal_node_id"": ""0.0-45.10-0.10"", ""phase2_counterbalance"": 0, ""trial_index"": 118}"
debugJ82PY0:debugMX4MY8,119,1542862698602,"{""rt"": null, ""trial_type"": ""html-keyboard-response"", ""task"": ""color"", ""sequence"": 5, ""stimulus"": ""<div style='color:grey'; class='row'>-</div><div class='row'><div class='column' style='border:3px solid green'><p class='small'><strong>Color Trial (&larr;)</strong></p></div><div class='column' style='border:3px solid grey'><p class='small'><strong>(&rarr;) Motion Trial</strong></p></div></div><div><div style='float: center;'><img src='/static/images/circle.png'></img></div></div><div style='width: 700px; height: 100px;'><div style='float: center; color: grey'>Filler</div></div>"", ""practice"": false, ""condition"": ""1"", ""time_elapsed"": 701320, ""correct_choice"": 37, ""phase1_counterbalance"": 1, ""cue"": ""circle"", ""key_press"": null, ""swap"": true, ""uniqueId"": ""debugJ82PY0:debugMX4MY8"", ""internal_node_id"": ""0.0-45.10-1.10"", ""phase2_counterbalance"": 0, ""trial_index"": 119}"
debugJ82PY0:debugMX4MY8,120,1542862699308,"{""rt"": null, ""trial_type"": ""html-keyboard-response"", ""sequence"": 5, ""stimulus"": ""<div style=\""float: center; font-size:60px; color:black;\"">+</div>"", ""phase1_counterbalance"": 1, ""internal_node_id"": ""0.0-45.10-2.10"", ""time_elapsed"": 702027, ""key_press"": null, ""condition"": ""1"", ""uniqueId"": ""debugJ82PY0:debugMX4MY8"", ""phase2_counterbalance"": 0, ""trial_index"": 120}"
debugJ82PY0:debugMX4MY8,121,1542862700394,"{""rt"": 1081, ""trial_type"": ""html-keyboard-response"", ""task"": ""color"", ""sequence"": 5, ""stimulus"": ""<div style='color:grey'; class='row'>-</div><div class='row'><div class='column' style='border:3px solid grey'><p class='small'><strong>Motion Trial (&larr;)</strong></p></div><div class='column' style='border:3px solid grey'><p class='small'><strong>(&rarr;) Color Trial</strong></p></div></div><div><div style='float: center;'><img src='/static/images/triangle.png'></img></div></div><div style='width: 700px; height: 100px;'><div style='float: center; color: grey'>Filler</div></div>"", ""practice"": false, ""condition"": ""1"", ""time_elapsed"": 703112, ""correct_choice"": 39, ""correct"": true, ""phase1_counterbalance"": 1, ""cue"": ""triangle"", ""key_press"": 39, ""swap"": false, ""uniqueId"": ""debugJ82PY0:debugMX4MY8"", ""internal_node_id"": ""0.0-45.11-0.11"", ""phase2_counterbalance"": 0, ""trial_index"": 121}"
debugJ82PY0:debugMX4MY8,122,1542862701900,"{""rt"": null, ""trial_type"": ""html-keyboard-response"", ""task"": ""color"", ""sequence"": 5, ""stimulus"": ""<div style='color:grey'; class='row'>-</div><div class='row'><div class='column' style='border:3px solid grey'><p class='small'><strong>Motion Trial (&larr;)</strong></p></div><div class='column' style='border:3px solid green'><p class='small'><strong>(&rarr;) Color Trial</strong></p></div></div><div><div style='float: center;'><img src='/static/images/triangle.png'></img></div></div><div style='width: 700px; height: 100px;'><div style='float: center; color: grey'>Filler</div></div>"", ""practice"": false, ""condition"": ""1"", ""time_elapsed"": 704618, ""correct_choice"": 39, ""phase1_counterbalance"": 1, ""cue"": ""triangle"", ""key_press"": null, ""swap"": false, ""uniqueId"": ""debugJ82PY0:debugMX4MY8"", ""internal_node_id"": ""0.0-45.11-1.11"", ""phase2_counterbalance"": 0, ""trial_index"": 122}"
debugJ82PY0:debugMX4MY8,123,1542862702605,"{""rt"": null, ""trial_type"": ""html-keyboard-response"", ""sequence"": 5, ""stimulus"": ""<div style=\""float: center; font-size:60px; color:black;\"">+</div>"", ""phase1_counterbalance"": 1, ""internal_node_id"": ""0.0-45.11-2.11"", ""time_elapsed"": 705323, ""key_press"": null, ""condition"": ""1"", ""uniqueId"": ""debugJ82PY0:debugMX4MY8"", ""phase2_counterbalance"": 0, ""trial_index"": 123}"
debugJ82PY0:debugMX4MY8,124,1542862703481,"{""rt"": 873, ""trial_type"": ""html-keyboard-response"", ""task"": ""motion"", ""sequence"": 5, ""stimulus"": ""<div style='color:grey'; class='row'>-</div><div class='row'><div class='column' style='border:3px solid grey'><p class='small'><strong>Motion Trial (&larr;)</strong></p></div><div class='column' style='border:3px solid grey'><p class='small'><strong>(&rarr;) Color Trial</strong></p></div></div><div><div style='float: center;'><img src='/static/images/diamond.png'></img></div></div><div style='width: 700px; height: 100px;'><div style='float: center; color: grey'>Filler</div></div>"", ""practice"": false, ""condition"": ""1"", ""time_elapsed"": 706200, ""correct_choice"": 37, ""correct"": true, ""phase1_counterbalance"": 1, ""cue"": ""diamond"", ""key_press"": 37, ""swap"": false, ""uniqueId"": ""debugJ82PY0:debugMX4MY8"", ""internal_node_id"": ""0.0-45.12-0.12"", ""phase2_counterbalance"": 0, ""trial_index"": 124}"
debugJ82PY0:debugMX4MY8,125,1542862704988,"{""rt"": null, ""trial_type"": ""html-keyboard-response"", ""task"": ""motion"", ""sequence"": 5, ""stimulus"": ""<div style='color:grey'; class='row'>-</div><div class='row'><div class='column' style='border:3px solid green'><p class='small'><strong>Motion Trial (&larr;)</strong></p></div><div class='column' style='border:3px solid grey'><p class='small'><strong>(&rarr;) Color Trial</strong></p></div></div><div><div style='float: center;'><img src='/static/images/diamond.png'></img></div></div><div style='width: 700px; height: 100px;'><div style='float: center; color: grey'>Filler</div></div>"", ""practice"": false, ""condition"": ""1"", ""time_elapsed"": 707706, ""correct_choice"": 37, ""phase1_counterbalance"": 1, ""cue"": ""diamond"", ""key_press"": null, ""swap"": false, ""uniqueId"": ""debugJ82PY0:debugMX4MY8"", ""internal_node_id"": ""0.0-45.12-1.12"", ""phase2_counterbalance"": 0, ""trial_index"": 125}"
debugJ82PY0:debugMX4MY8,126,1542862705691,"{""rt"": null, ""trial_type"": ""html-keyboard-response"", ""sequence"": 5, ""stimulus"": ""<div style=\""float: center; font-size:60px; color:black;\"">+</div>"", ""phase1_counterbalance"": 1, ""internal_node_id"": ""0.0-45.12-2.12"", ""time_elapsed"": 708410, ""key_press"": null, ""condition"": ""1"", ""uniqueId"": ""debugJ82PY0:debugMX4MY8"", ""phase2_counterbalance"": 0, ""trial_index"": 126}"
debugJ82PY0:debugMX4MY8,127,1542862706655,"{""rt"": 959, ""trial_type"": ""html-keyboard-response"", ""task"": ""color"", ""sequence"": 5, ""stimulus"": ""<div style='color:grey'; class='row'>-</div><div class='row'><div class='column' style='border:3px solid grey'><p class='small'><strong>Motion Trial (&larr;)</strong></p></div><div class='column' style='border:3px solid grey'><p class='small'><strong>(&rarr;) Color Trial</strong></p></div></div><div><div style='float: center;'><img src='/static/images/circle.png'></img></div></div><div style='width: 700px; height: 100px;'><div style='float: center; color: grey'>Filler</div></div>"", ""practice"": false, ""condition"": ""1"", ""time_elapsed"": 709373, ""correct_choice"": 39, ""correct"": true, ""phase1_counterbalance"": 1, ""cue"": ""circle"", ""key_press"": 39, ""swap"": false, ""uniqueId"": ""debugJ82PY0:debugMX4MY8"", ""internal_node_id"": ""0.0-45.13-0.13"", ""phase2_counterbalance"": 0, ""trial_index"": 127}"
debugJ82PY0:debugMX4MY8,128,1542862708162,"{""rt"": null, ""trial_type"": ""html-keyboard-response"", ""task"": ""color"", ""sequence"": 5, ""stimulus"": ""<div style='color:grey'; class='row'>-</div><div class='row'><div class='column' style='border:3px solid grey'><p class='small'><strong>Motion Trial (&larr;)</strong></p></div><div class='column' style='border:3px solid green'><p class='small'><strong>(&rarr;) Color Trial</strong></p></div></div><div><div style='float: center;'><img src='/static/images/circle.png'></img></div></div><div style='width: 700px; height: 100px;'><div style='float: center; color: grey'>Filler</div></div>"", ""practice"": false, ""condition"": ""1"", ""time_elapsed"": 710881, ""correct_choice"": 39, ""phase1_counterbalance"": 1, ""cue"": ""circle"", ""key_press"": null, ""swap"": false, ""uniqueId"": ""debugJ82PY0:debugMX4MY8"", ""internal_node_id"": ""0.0-45.13-1.13"", ""phase2_counterbalance"": 0, ""trial_index"": 128}"
debugJ82PY0:debugMX4MY8,129,1542862708866,"{""rt"": null, ""trial_type"": ""html-keyboard-response"", ""sequence"": 5, ""stimulus"": ""<div style=\""float: center; font-size:60px; color:black;\"">+</div>"", ""phase1_counterbalance"": 1, ""internal_node_id"": ""0.0-45.13-2.13"", ""time_elapsed"": 711585, ""key_press"": null, ""condition"": ""1"", ""uniqueId"": ""debugJ82PY0:debugMX4MY8"", ""phase2_counterbalance"": 0, ""trial_index"": 129}"
debugJ82PY0:debugMX4MY8,130,1542862709753,"{""rt"": 882, ""trial_type"": ""html-keyboard-response"", ""task"": ""color"", ""sequence"": 5, ""stimulus"": ""<div style='color:grey'; class='row'>-</div><div class='row'><div class='column' style='border:3px solid grey'><p class='small'><strong>Color Trial (&larr;)</strong></p></div><div class='column' style='border:3px solid grey'><p class='small'><strong>(&rarr;) Motion Trial</strong></p></div></div><div><div style='float: center;'><img src='/static/images/circle.png'></img></div></div><div style='width: 700px; height: 100px;'><div style='float: center; color: grey'>Filler</div></div>"", ""practice"": false, ""condition"": ""1"", ""time_elapsed"": 712471, ""correct_choice"": 37, ""correct"": true, ""phase1_counterbalance"": 1, ""cue"": ""circle"", ""key_press"": 37, ""swap"": true, ""uniqueId"": ""debugJ82PY0:debugMX4MY8"", ""internal_node_id"": ""0.0-45.14-0.14"", ""phase2_counterbalance"": 0, ""trial_index"": 130}"
debugJ82PY0:debugMX4MY8,131,1542862713510,"{""rt"": null, ""trial_type"": ""html-keyboard-response"", ""task"": ""color"", ""sequence"": 5, ""stimulus"": ""<div class='row'>You need 3 more correct trials to move on!</div><div class='row'><div class='column' style='border:3px solid green'><p class='small'><strong>Color Trial (&larr;)</strong></p></div><div class='column' style='border:3px solid grey'><p class='small'><strong>(&rarr;) Motion Trial</strong></p></div></div><div><div style='float: center;'><img src='/static/images/circle.png'></img></div></div><div style='width: 700px; height: 100px;'><div style='float: center; color: grey'>Filler</div></div>"", ""practice"": false, ""condition"": ""1"", ""time_elapsed"": 716229, ""correct_choice"": 37, ""phase1_counterbalance"": 1, ""cue"": ""circle"", ""key_press"": null, ""swap"": true, ""uniqueId"": ""debugJ82PY0:debugMX4MY8"", ""internal_node_id"": ""0.0-45.14-1.14"", ""phase2_counterbalance"": 0, ""trial_index"": 131}"
debugJ82PY0:debugMX4MY8,132,1542862714214,"{""rt"": null, ""trial_type"": ""html-keyboard-response"", ""sequence"": 5, ""stimulus"": ""<div style=\""float: center; font-size:60px; color:black;\"">+</div>"", ""phase1_counterbalance"": 1, ""internal_node_id"": ""0.0-45.14-2.14"", ""time_elapsed"": 716933, ""key_press"": null, ""condition"": ""1"", ""uniqueId"": ""debugJ82PY0:debugMX4MY8"", ""phase2_counterbalance"": 0, ""trial_index"": 132}"
debugJ82PY0:debugMX4MY8,133,1542862714986,"{""rt"": 766, ""trial_type"": ""html-keyboard-response"", ""task"": ""motion"", ""sequence"": 5, ""stimulus"": ""<div style='color:grey'; class='row'>-</div><div class='row'><div class='column' style='border:3px solid grey'><p class='small'><strong>Color Trial (&larr;)</strong></p></div><div class='column' style='border:3px solid grey'><p class='small'><strong>(&rarr;) Motion Trial</strong></p></div></div><div><div style='float: center;'><img src='/static/images/square.png'></img></div></div><div style='width: 700px; height: 100px;'><div style='float: center; color: grey'>Filler</div></div>"", ""practice"": false, ""condition"": ""1"", ""time_elapsed"": 717705, ""correct_choice"": 39, ""correct"": true, ""phase1_counterbalance"": 1, ""cue"": ""square"", ""key_press"": 39, ""swap"": true, ""uniqueId"": ""debugJ82PY0:debugMX4MY8"", ""internal_node_id"": ""0.0-45.15-0.15"", ""phase2_counterbalance"": 0, ""trial_index"": 133}"
debugJ82PY0:debugMX4MY8,134,1542862716491,"{""rt"": null, ""trial_type"": ""html-keyboard-response"", ""task"": ""motion"", ""sequence"": 5, ""stimulus"": ""<div style='color:grey'; class='row'>-</div><div class='row'><div class='column' style='border:3px solid grey'><p class='small'><strong>Color Trial (&larr;)</strong></p></div><div class='column' style='border:3px solid green'><p class='small'><strong>(&rarr;) Motion Trial</strong></p></div></div><div><div style='float: center;'><img src='/static/images/square.png'></img></div></div><div style='width: 700px; height: 100px;'><div style='float: center; color: grey'>Filler</div></div>"", ""practice"": false, ""condition"": ""1"", ""time_elapsed"": 719210, ""correct_choice"": 39, ""phase1_counterbalance"": 1, ""cue"": ""square"", ""key_press"": null, ""swap"": true, ""uniqueId"": ""debugJ82PY0:debugMX4MY8"", ""internal_node_id"": ""0.0-45.15-1.15"", ""phase2_counterbalance"": 0, ""trial_index"": 134}"
debugJ82PY0:debugMX4MY8,135,1542862717197,"{""rt"": null, ""trial_type"": ""html-keyboard-response"", ""sequence"": 5, ""stimulus"": ""<div style=\""float: center; font-size:60px; color:black;\"">+</div>"", ""phase1_counterbalance"": 1, ""internal_node_id"": ""0.0-45.15-2.15"", ""time_elapsed"": 719916, ""key_press"": null, ""condition"": ""1"", ""uniqueId"": ""debugJ82PY0:debugMX4MY8"", ""phase2_counterbalance"": 0, ""trial_index"": 135}"
debugJ82PY0:debugMX4MY8,136,1542862718021,"{""rt"": 820, ""trial_type"": ""html-keyboard-response"", ""task"": ""color"", ""sequence"": 5, ""stimulus"": ""<div style='color:grey'; class='row'>-</div><div class='row'><div class='column' style='border:3px solid grey'><p class='small'><strong>Color Trial (&larr;)</strong></p></div><div class='column' style='border:3px solid grey'><p class='small'><strong>(&rarr;) Motion Trial</strong></p></div></div><div><div style='float: center;'><img src='/static/images/circle.png'></img></div></div><div style='width: 700px; height: 100px;'><div style='float: center; color: grey'>Filler</div></div>"", ""practice"": false, ""condition"": ""1"", ""time_elapsed"": 720740, ""correct_choice"": 37, ""correct"": true, ""phase1_counterbalance"": 1, ""cue"": ""circle"", ""key_press"": 37, ""swap"": true, ""uniqueId"": ""debugJ82PY0:debugMX4MY8"", ""internal_node_id"": ""0.0-45.16-0.16"", ""phase2_counterbalance"": 0, ""trial_index"": 136}"
debugJ82PY0:debugMX4MY8,137,1542862719528,"{""rt"": null, ""trial_type"": ""html-keyboard-response"", ""task"": ""color"", ""sequence"": 5, ""stimulus"": ""<div style='color:grey'; class='row'>-</div><div class='row'><div class='column' style='border:3px solid green'><p class='small'><strong>Color Trial (&larr;)</strong></p></div><div class='column' style='border:3px solid grey'><p class='small'><strong>(&rarr;) Motion Trial</strong></p></div></div><div><div style='float: center;'><img src='/static/images/circle.png'></img></div></div><div style='width: 700px; height: 100px;'><div style='float: center; color: grey'>Filler</div></div>"", ""practice"": false, ""condition"": ""1"", ""time_elapsed"": 722247, ""correct_choice"": 37, ""phase1_counterbalance"": 1, ""cue"": ""circle"", ""key_press"": null, ""swap"": true, ""uniqueId"": ""debugJ82PY0:debugMX4MY8"", ""internal_node_id"": ""0.0-45.16-1.16"", ""phase2_counterbalance"": 0, ""trial_index"": 137}"
debugJ82PY0:debugMX4MY8,138,1542862720233,"{""rt"": null, ""trial_type"": ""html-keyboard-response"", ""sequence"": 5, ""stimulus"": ""<div style=\""float: center; font-size:60px; color:black;\"">+</div>"", ""phase1_counterbalance"": 1, ""internal_node_id"": ""0.0-45.16-2.16"", ""time_elapsed"": 722951, ""key_press"": null, ""condition"": ""1"", ""uniqueId"": ""debugJ82PY0:debugMX4MY8"", ""phase2_counterbalance"": 0, ""trial_index"": 138}"
debugJ82PY0:debugMX4MY8,139,1542862721514,"{""rt"": 1276, ""trial_type"": ""html-keyboard-response"", ""task"": ""color"", ""sequence"": 5, ""stimulus"": ""<div style='color:grey'; class='row'>-</div><div class='row'><div class='column' style='border:3px solid grey'><p class='small'><strong>Color Trial (&larr;)</strong></p></div><div class='column' style='border:3px solid grey'><p class='small'><strong>(&rarr;) Motion Trial</strong></p></div></div><div><div style='float: center;'><img src='/static/images/circle.png'></img></div></div><div style='width: 700px; height: 100px;'><div style='float: center; color: grey'>Filler</div></div>"", ""practice"": false, ""condition"": ""1"", ""time_elapsed"": 724233, ""correct_choice"": 37, ""correct"": true, ""phase1_counterbalance"": 1, ""cue"": ""circle"", ""key_press"": 37, ""swap"": true, ""uniqueId"": ""debugJ82PY0:debugMX4MY8"", ""internal_node_id"": ""0.0-45.17-0.17"", ""phase2_counterbalance"": 0, ""trial_index"": 139}"
debugJ82PY0:debugMX4MY8,140,1542862723021,"{""rt"": null, ""trial_type"": ""html-keyboard-response"", ""task"": ""color"", ""sequence"": 5, ""stimulus"": ""<div style='color:grey'; class='row'>-</div><div class='row'><div class='column' style='border:3px solid green'><p class='small'><strong>Color Trial (&larr;)</strong></p></div><div class='column' style='border:3px solid grey'><p class='small'><strong>(&rarr;) Motion Trial</strong></p></div></div><div><div style='float: center;'><img src='/static/images/circle.png'></img></div></div><div style='width: 700px; height: 100px;'><div style='float: center; color: grey'>Filler</div></div>"", ""practice"": false, ""condition"": ""1"", ""time_elapsed"": 725740, ""correct_choice"": 37, ""phase1_counterbalance"": 1, ""cue"": ""circle"", ""key_press"": null, ""swap"": true, ""uniqueId"": ""debugJ82PY0:debugMX4MY8"", ""internal_node_id"": ""0.0-45.17-1.17"", ""phase2_counterbalance"": 0, ""trial_index"": 140}"
debugJ82PY0:debugMX4MY8,141,1542862723728,"{""rt"": null, ""trial_type"": ""html-keyboard-response"", ""sequence"": 5, ""stimulus"": ""<div style=\""float: center; font-size:60px; color:black;\"">+</div>"", ""phase1_counterbalance"": 1, ""internal_node_id"": ""0.0-45.17-2.17"", ""time_elapsed"": 726447, ""key_press"": null, ""condition"": ""1"", ""uniqueId"": ""debugJ82PY0:debugMX4MY8"", ""phase2_counterbalance"": 0, ""trial_index"": 141}"
debugJ82PY0:debugMX4MY8,142,1542862725021,"{""rt"": 1288, ""trial_type"": ""html-keyboard-response"", ""task"": ""color"", ""sequence"": 5, ""stimulus"": ""<div style='color:grey'; class='row'>-</div><div class='row'><div class='column' style='border:3px solid grey'><p class='small'><strong>Color Trial (&larr;)</strong></p></div><div class='column' style='border:3px solid grey'><p class='small'><strong>(&rarr;) Motion Trial</strong></p></div></div><div><div style='float: center;'><img src='/static/images/circle.png'></img></div></div><div style='width: 700px; height: 100px;'><div style='float: center; color: grey'>Filler</div></div>"", ""practice"": false, ""condition"": ""1"", ""time_elapsed"": 727739, ""correct_choice"": 37, ""correct"": true, ""phase1_counterbalance"": 1, ""cue"": ""circle"", ""key_press"": 37, ""swap"": true, ""uniqueId"": ""debugJ82PY0:debugMX4MY8"", ""internal_node_id"": ""0.0-45.18-0.18"", ""phase2_counterbalance"": 0, ""trial_index"": 142}"
debugJ82PY0:debugMX4MY8,143,1542862726529,"{""rt"": null, ""trial_type"": ""html-keyboard-response"", ""task"": ""color"", ""sequence"": 5, ""stimulus"": ""<div style='color:grey'; class='row'>-</div><div class='row'><div class='column' style='border:3px solid green'><p class='small'><strong>Color Trial (&larr;)</strong></p></div><div class='column' style='border:3px solid grey'><p class='small'><strong>(&rarr;) Motion Trial</strong></p></div></div><div><div style='float: center;'><img src='/static/images/circle.png'></img></div></div><div style='width: 700px; height: 100px;'><div style='float: center; color: grey'>Filler</div></div>"", ""practice"": false, ""condition"": ""1"", ""time_elapsed"": 729247, ""correct_choice"": 37, ""phase1_counterbalance"": 1, ""cue"": ""circle"", ""key_press"": null, ""swap"": true, ""uniqueId"": ""debugJ82PY0:debugMX4MY8"", ""internal_node_id"": ""0.0-45.18-1.18"", ""phase2_counterbalance"": 0, ""trial_index"": 143}"
debugJ82PY0:debugMX4MY8,144,1542862727236,"{""rt"": null, ""trial_type"": ""html-keyboard-response"", ""sequence"": 5, ""stimulus"": ""<div style=\""float: center; font-size:60px; color:black;\"">+</div>"", ""phase1_counterbalance"": 1, ""internal_node_id"": ""0.0-45.18-2.18"", ""time_elapsed"": 729955, ""key_press"": null, ""condition"": ""1"", ""uniqueId"": ""debugJ82PY0:debugMX4MY8"", ""phase2_counterbalance"": 0, ""trial_index"": 144}"
debugJ82PY0:debugMX4MY8,145,1542862729123,"{""rt"": 1880, ""trial_type"": ""html-keyboard-response"", ""task"": ""motion"", ""sequence"": 5, ""stimulus"": ""<div style='color:grey'; class='row'>-</div><div class='row'><div class='column' style='border:3px solid grey'><p class='small'><strong>Color Trial (&larr;)</strong></p></div><div class='column' style='border:3px solid grey'><p class='small'><strong>(&rarr;) Motion Trial</strong></p></div></div><div><div style='float: center;'><img src='/static/images/square.png'></img></div></div><div style='width: 700px; height: 100px;'><div style='float: center; color: grey'>Filler</div></div>"", ""practice"": false, ""condition"": ""1"", ""time_elapsed"": 731842, ""correct_choice"": 39, ""correct"": true, ""phase1_counterbalance"": 1, ""cue"": ""square"", ""key_press"": 39, ""swap"": true, ""uniqueId"": ""debugJ82PY0:debugMX4MY8"", ""internal_node_id"": ""0.0-45.19-0.19"", ""phase2_counterbalance"": 0, ""trial_index"": 145}"
debugJ82PY0:debugMX4MY8,146,1542862732878,"{""rt"": null, ""trial_type"": ""html-keyboard-response"", ""task"": ""motion"", ""sequence"": 5, ""stimulus"": ""<div class='row'>You need -2 more correct trials to move on!</div><div class='row'><div class='column' style='border:3px solid grey'><p class='small'><strong>Color Trial (&larr;)</strong></p></div><div class='column' style='border:3px solid green'><p class='small'><strong>(&rarr;) Motion Trial</strong></p></div></div><div><div style='float: center;'><img src='/static/images/square.png'></img></div></div><div style='width: 700px; height: 100px;'><div style='float: center; color: grey'>Filler</div></div>"", ""practice"": false, ""condition"": ""1"", ""time_elapsed"": 735597, ""correct_choice"": 39, ""phase1_counterbalance"": 1, ""cue"": ""square"", ""key_press"": null, ""swap"": true, ""uniqueId"": ""debugJ82PY0:debugMX4MY8"", ""internal_node_id"": ""0.0-45.19-1.19"", ""phase2_counterbalance"": 0, ""trial_index"": 146}"
debugJ82PY0:debugMX4MY8,147,1542862733585,"{""rt"": null, ""trial_type"": ""html-keyboard-response"", ""sequence"": 5, ""stimulus"": ""<div style=\""float: center; font-size:60px; color:black;\"">+</div>"", ""phase1_counterbalance"": 1, ""internal_node_id"": ""0.0-45.19-2.19"", ""time_elapsed"": 736304, ""key_press"": null, ""condition"": ""1"", ""uniqueId"": ""debugJ82PY0:debugMX4MY8"", ""phase2_counterbalance"": 0, ""trial_index"": 147}"
debugJ82PY0:debugMX4MY8,148,1542862775421,"{""rt"": 41832, ""trial_type"": ""instructions"", ""view_history"": ""[{\""page_index\"":0,\""viewing_time\"":41832}]"", ""sequence"": 5, ""phase1_counterbalance"": 1, ""internal_node_id"": ""0.0-46.0"", ""time_elapsed"": 778140, ""condition"": ""1"", ""uniqueId"": ""debugJ82PY0:debugMX4MY8"", ""phase2_counterbalance"": 0, ""trial_index"": 148}"
debugJ82PY0:debugMX4MY8,149,1542862835098,"{""rt"": 59674, ""trial_type"": ""instructions"", ""view_history"": ""[{\""page_index\"":0,\""viewing_time\"":59672}]"", ""sequence"": 5, ""phase1_counterbalance"": 1, ""internal_node_id"": ""0.0-47.0"", ""time_elapsed"": 837816, ""condition"": ""1"", ""uniqueId"": ""debugJ82PY0:debugMX4MY8"", ""phase2_counterbalance"": 0, ""trial_index"": 149}"
debugJ82PY0:debugMX4MY8,150,1542862838714,"{""rt"": null, ""trial_type"": ""html-keyboard-response"", ""sequence"": 5, ""stimulus"": ""<div style='width: 700px;'><div style='float: center;'><img src='/static/images/circle.png'></img></div>(this cues a color task)</div>"", ""phase1_counterbalance"": 1, ""internal_node_id"": ""0.0-48.0-0.0"", ""time_elapsed"": 841430, ""key_press"": null, ""condition"": ""1"", ""uniqueId"": ""debugJ82PY0:debugMX4MY8"", ""phase2_counterbalance"": 0, ""trial_index"": 150}"
debugJ82PY0:debugMX4MY8,151,1542862839421,"{""rt"": null, ""trial_type"": ""html-keyboard-response"", ""sequence"": 5, ""stimulus"": """", ""phase1_counterbalance"": 1, ""internal_node_id"": ""0.0-48.0-1.0"", ""time_elapsed"": 842139, ""key_press"": null, ""condition"": ""1"", ""uniqueId"": ""debugJ82PY0:debugMX4MY8"", ""phase2_counterbalance"": 0, ""trial_index"": 151}"
debugJ82PY0:debugMX4MY8,152,1542862841854,"{""rt"": 2185.9000000113156, ""trial_type"": ""dotmotion"", ""task"": ""color"", ""phase2_counterbalance"": 0, ""sequence"": 5, ""trial_duration"": 4000, ""phase1_counterbalance"": 1, ""internal_node_id"": ""0.0-48.0-2.0"", ""correct_choice"": ""a"", ""choices"": [""a"", ""l""], ""time_elapsed"": 844573, ""fill_ITT"": true, ""key_press"": 65, ""condition"": ""1"", ""uniqueId"": ""debugJ82PY0:debugMX4MY8"", ""phase"": ""3.1"", ""response_ends_trial"": true, ""correct"": true, ""trial_index"": 152}"
debugJ82PY0:debugMX4MY8,153,1542862844876,"{""rt"": null, ""trial_type"": ""html-keyboard-response"", ""sequence"": 5, ""stimulus"": """", ""phase1_counterbalance"": 1, ""internal_node_id"": ""0.0-48.0-3.0"", ""time_elapsed"": 847595, ""key_press"": null, ""condition"": ""1"", ""uniqueId"": ""debugJ82PY0:debugMX4MY8"", ""phase2_counterbalance"": 0, ""trial_index"": 153}"
