A17D6BK59S31BM:3X65QVEQI2JDZJDCF3CPR5PYOVXCLY,0,1544310204283,"{""phase1_counterbalance"": 1, ""trial_type"": ""fullscreen"", ""success"": true, ""sequence"": 5, ""internal_node_id"": ""0.0-0.0"", ""time_elapsed"": 4423, ""condition"": ""0"", ""uniqueId"": ""A17D6BK59S31BM:3X65QVEQI2JDZJDCF3CPR5PYOVXCLY"", ""phase2_counterbalance"": 1, ""trial_index"": 0}"
A17D6BK59S31BM:3X65QVEQI2JDZJDCF3CPR5PYOVXCLY,1,1544310207134,"{""rt"": 2848, ""trial_type"": ""instructions"", ""view_history"": ""[{\""page_index\"":0,\""viewing_time\"":1358},{\""page_index\"":1,\""viewing_time\"":1490}]"", ""sequence"": 5, ""phase1_counterbalance"": 1, ""internal_node_id"": ""0.0-1.0"", ""time_elapsed"": 7274, ""condition"": ""0"", ""uniqueId"": ""A17D6BK59S31BM:3X65QVEQI2JDZJDCF3CPR5PYOVXCLY"", ""phase2_counterbalance"": 1, ""trial_index"": 1}"
A17D6BK59S31BM:3X65QVEQI2JDZJDCF3CPR5PYOVXCLY,2,1544310211148,"{""rt"": -1, ""trial_type"": ""dotmotion"", ""task"": ""motion"", ""uniqueId"": ""A17D6BK59S31BM:3X65QVEQI2JDZJDCF3CPR5PYOVXCLY"", ""sequence"": 5, ""coherent_color"": ""blue"", ""colorCoherence"": 0.725, ""phase1_counterbalance"": 1, ""internal_node_id"": ""0.0-2.0-0.0"", ""correct_choice"": ""l"", ""trial_duration"": 3000, ""time_elapsed"": 11289, ""key_press"": -1, ""condition"": ""0"", ""coherent_direction"": ""down"", ""phase2_counterbalance"": 1, ""correct"": false, ""trial_index"": 2, ""motionCoherence"": 0.45}"
A17D6BK59S31BM:3X65QVEQI2JDZJDCF3CPR5PYOVXCLY,3,1544310214368,"{""rt"": 2701, ""trial_type"": ""instructions"", ""view_history"": ""[{\""page_index\"":0,\""viewing_time\"":2701}]"", ""sequence"": 5, ""phase1_counterbalance"": 1, ""internal_node_id"": ""0.0-3.0"", ""time_elapsed"": 14509, ""condition"": ""0"", ""uniqueId"": ""A17D6BK59S31BM:3X65QVEQI2JDZJDCF3CPR5PYOVXCLY"", ""phase2_counterbalance"": 1, ""trial_index"": 3}"
A17D6BK59S31BM:3X65QVEQI2JDZJDCF3CPR5PYOVXCLY,4,1544310238805,"{""rt"": 23433, ""trial_type"": ""instructions"", ""view_history"": ""[{\""page_index\"":0,\""viewing_time\"":2988},{\""page_index\"":1,\""viewing_time\"":11510},{\""page_index\"":2,\""viewing_time\"":6226},{\""page_index\"":3,\""viewing_time\"":2709}]"", ""sequence"": 5, ""phase1_counterbalance"": 1, ""internal_node_id"": ""0.0-4.0"", ""time_elapsed"": 38946, ""condition"": ""0"", ""uniqueId"": ""A17D6BK59S31BM:3X65QVEQI2JDZJDCF3CPR5PYOVXCLY"", ""phase2_counterbalance"": 1, ""trial_index"": 4}"
A17D6BK59S31BM:3X65QVEQI2JDZJDCF3CPR5PYOVXCLY,5,1544310241570,"{""rt"": 1622.1999998670071, ""trial_type"": ""dotmotion"", ""task"": ""color"", ""uniqueId"": ""A17D6BK59S31BM:3X65QVEQI2JDZJDCF3CPR5PYOVXCLY"", ""sequence"": 5, ""coherent_color"": ""red"", ""colorCoherence"": 0.725, ""phase1_counterbalance"": 1, ""internal_node_id"": ""0.0-5.0-0.0"", ""correct_choice"": ""l"", ""trial_duration"": 3000, ""time_elapsed"": 41711, ""key_press"": 76, ""condition"": ""0"", ""coherent_direction"": ""down"", ""phase2_counterbalance"": 1, ""correct"": true, ""trial_index"": 5, ""motionCoherence"": 0.45}"
A17D6BK59S31BM:3X65QVEQI2JDZJDCF3CPR5PYOVXCLY,6,1544310243028,"{""rt"": 947.3999999463558, ""trial_type"": ""dotmotion"", ""task"": ""color"", ""uniqueId"": ""A17D6BK59S31BM:3X65QVEQI2JDZJDCF3CPR5PYOVXCLY"", ""sequence"": 5, ""coherent_color"": ""blue"", ""colorCoherence"": 0.725, ""phase1_counterbalance"": 1, ""internal_node_id"": ""0.0-6.0-0.0"", ""correct_choice"": ""a"", ""trial_duration"": 3000, ""time_elapsed"": 43169, ""key_press"": 65, ""condition"": ""0"", ""coherent_direction"": ""down"", ""phase2_counterbalance"": 1, ""correct"": true, ""trial_index"": 6, ""motionCoherence"": 0.45}"
A17D6BK59S31BM:3X65QVEQI2JDZJDCF3CPR5PYOVXCLY,7,1544310244239,"{""rt"": 692.3999998252839, ""trial_type"": ""dotmotion"", ""task"": ""color"", ""uniqueId"": ""A17D6BK59S31BM:3X65QVEQI2JDZJDCF3CPR5PYOVXCLY"", ""sequence"": 5, ""coherent_color"": ""red"", ""colorCoherence"": 0.725, ""phase1_counterbalance"": 1, ""internal_node_id"": ""0.0-7.0-0.0"", ""correct_choice"": ""l"", ""trial_duration"": 3000, ""time_elapsed"": 44380, ""key_press"": 76, ""condition"": ""0"", ""coherent_direction"": ""down"", ""phase2_counterbalance"": 1, ""correct"": true, ""trial_index"": 7, ""motionCoherence"": 0.45}"
A17D6BK59S31BM:3X65QVEQI2JDZJDCF3CPR5PYOVXCLY,8,1544310245348,"{""rt"": 599.2000000551343, ""trial_type"": ""dotmotion"", ""task"": ""color"", ""uniqueId"": ""A17D6BK59S31BM:3X65QVEQI2JDZJDCF3CPR5PYOVXCLY"", ""sequence"": 5, ""coherent_color"": ""blue"", ""colorCoherence"": 0.725, ""phase1_counterbalance"": 1, ""internal_node_id"": ""0.0-8.0-0.0"", ""correct_choice"": ""a"", ""trial_duration"": 3000, ""time_elapsed"": 45489, ""key_press"": 65, ""condition"": ""0"", ""coherent_direction"": ""down"", ""phase2_counterbalance"": 1, ""correct"": true, ""trial_index"": 8, ""motionCoherence"": 0.45}"
A17D6BK59S31BM:3X65QVEQI2JDZJDCF3CPR5PYOVXCLY,9,1544310253133,"{""rt"": 7281, ""trial_type"": ""instructions"", ""view_history"": ""[{\""page_index\"":0,\""viewing_time\"":2169},{\""page_index\"":1,\""viewing_time\"":2573},{\""page_index\"":2,\""viewing_time\"":840},{\""page_index\"":3,\""viewing_time\"":1699}]"", ""sequence"": 5, ""phase1_counterbalance"": 1, ""internal_node_id"": ""0.0-9.0"", ""time_elapsed"": 53274, ""condition"": ""0"", ""uniqueId"": ""A17D6BK59S31BM:3X65QVEQI2JDZJDCF3CPR5PYOVXCLY"", ""phase2_counterbalance"": 1, ""trial_index"": 9}"
A17D6BK59S31BM:3X65QVEQI2JDZJDCF3CPR5PYOVXCLY,10,1544310255487,"{""rt"": 1208.4999999497086, ""trial_type"": ""dotmotion"", ""task"": ""motion"", ""uniqueId"": ""A17D6BK59S31BM:3X65QVEQI2JDZJDCF3CPR5PYOVXCLY"", ""sequence"": 5, ""coherent_color"": ""blue"", ""colorCoherence"": 0.725, ""phase1_counterbalance"": 1, ""internal_node_id"": ""0.0-10.0-0.0"", ""correct_choice"": ""l"", ""trial_duration"": 3000, ""time_elapsed"": 55628, ""key_press"": 76, ""condition"": ""0"", ""coherent_direction"": ""down"", ""phase2_counterbalance"": 1, ""correct"": true, ""trial_index"": 10, ""motionCoherence"": 0.45}"
A17D6BK59S31BM:3X65QVEQI2JDZJDCF3CPR5PYOVXCLY,11,1544310256979,"{""rt"": 983.0000000074506, ""trial_type"": ""dotmotion"", ""task"": ""motion"", ""uniqueId"": ""A17D6BK59S31BM:3X65QVEQI2JDZJDCF3CPR5PYOVXCLY"", ""sequence"": 5, ""coherent_color"": ""blue"", ""colorCoherence"": 0.725, ""phase1_counterbalance"": 1, ""internal_node_id"": ""0.0-11.0-0.0"", ""correct_choice"": ""a"", ""trial_duration"": 3000, ""time_elapsed"": 57120, ""key_press"": 65, ""condition"": ""0"", ""coherent_direction"": ""up"", ""phase2_counterbalance"": 1, ""correct"": true, ""trial_index"": 11, ""motionCoherence"": 0.45}"
A17D6BK59S31BM:3X65QVEQI2JDZJDCF3CPR5PYOVXCLY,12,1544310258276,"{""rt"": 786.1999999731779, ""trial_type"": ""dotmotion"", ""task"": ""motion"", ""uniqueId"": ""A17D6BK59S31BM:3X65QVEQI2JDZJDCF3CPR5PYOVXCLY"", ""sequence"": 5, ""coherent_color"": ""blue"", ""colorCoherence"": 0.725, ""phase1_counterbalance"": 1, ""internal_node_id"": ""0.0-12.0-0.0"", ""correct_choice"": ""l"", ""trial_duration"": 3000, ""time_elapsed"": 58416, ""key_press"": 76, ""condition"": ""0"", ""coherent_direction"": ""down"", ""phase2_counterbalance"": 1, ""correct"": true, ""trial_index"": 12, ""motionCoherence"": 0.45}"
A17D6BK59S31BM:3X65QVEQI2JDZJDCF3CPR5PYOVXCLY,13,1544310259520,"{""rt"": 735.0999999325722, ""trial_type"": ""dotmotion"", ""task"": ""motion"", ""uniqueId"": ""A17D6BK59S31BM:3X65QVEQI2JDZJDCF3CPR5PYOVXCLY"", ""sequence"": 5, ""coherent_color"": ""blue"", ""colorCoherence"": 0.725, ""phase1_counterbalance"": 1, ""internal_node_id"": ""0.0-13.0-0.0"", ""correct_choice"": ""a"", ""trial_duration"": 3000, ""time_elapsed"": 59661, ""key_press"": 65, ""condition"": ""0"", ""coherent_direction"": ""up"", ""phase2_counterbalance"": 1, ""correct"": true, ""trial_index"": 13, ""motionCoherence"": 0.45}"
A17D6BK59S31BM:3X65QVEQI2JDZJDCF3CPR5PYOVXCLY,14,1544310261991,"{""rt"": 1969, ""trial_type"": ""instructions"", ""view_history"": ""[{\""page_index\"":0,\""viewing_time\"":1967}]"", ""sequence"": 5, ""phase1_counterbalance"": 1, ""internal_node_id"": ""0.0-14.0"", ""time_elapsed"": 62132, ""condition"": ""0"", ""uniqueId"": ""A17D6BK59S31BM:3X65QVEQI2JDZJDCF3CPR5PYOVXCLY"", ""phase2_counterbalance"": 1, ""trial_index"": 14}"
A17D6BK59S31BM:3X65QVEQI2JDZJDCF3CPR5PYOVXCLY,15,1544310265199,"{""rt"": 2205, ""trial_type"": ""instructions"", ""view_history"": ""[{\""page_index\"":0,\""viewing_time\"":2205}]"", ""sequence"": 5, ""phase1_counterbalance"": 1, ""internal_node_id"": ""0.0-15.0"", ""time_elapsed"": 65340, ""condition"": ""0"", ""uniqueId"": ""A17D6BK59S31BM:3X65QVEQI2JDZJDCF3CPR5PYOVXCLY"", ""phase2_counterbalance"": 1, ""trial_index"": 15}"
A17D6BK59S31BM:3X65QVEQI2JDZJDCF3CPR5PYOVXCLY,16,1544310268915,"{""rt"": 1073.4999999403954, ""trial_type"": ""dotmotion"", ""task"": ""color"", ""uniqueId"": ""A17D6BK59S31BM:3X65QVEQI2JDZJDCF3CPR5PYOVXCLY"", ""sequence"": 5, ""coherent_color"": ""red"", ""colorCoherence"": 0.7, ""phase1_counterbalance"": 1, ""internal_node_id"": ""0.0-16.0-0.0"", ""correct_choice"": ""l"", ""trial_duration"": 3000, ""time_elapsed"": 69056, ""key_press"": 76, ""condition"": ""0"", ""coherent_direction"": ""up"", ""phase"": ""1.2"", ""phase2_counterbalance"": 1, ""correct"": true, ""trial_index"": 16, ""motionCoherence"": 0.4}"
A17D6BK59S31BM:3X65QVEQI2JDZJDCF3CPR5PYOVXCLY,17,1544310270120,"{""rt"": null, ""trial_type"": ""html-keyboard-response"", ""sequence"": 5, ""stimulus"": """", ""phase1_counterbalance"": 1, ""internal_node_id"": ""0.0-16.0-1.0"", ""time_elapsed"": 70261, ""key_press"": null, ""condition"": ""0"", ""uniqueId"": ""A17D6BK59S31BM:3X65QVEQI2JDZJDCF3CPR5PYOVXCLY"", ""phase2_counterbalance"": 1, ""trial_index"": 17}"
A17D6BK59S31BM:3X65QVEQI2JDZJDCF3CPR5PYOVXCLY,18,1544310272214,"{""rt"": 581.6999999806285, ""trial_type"": ""dotmotion"", ""task"": ""color"", ""uniqueId"": ""A17D6BK59S31BM:3X65QVEQI2JDZJDCF3CPR5PYOVXCLY"", ""sequence"": 5, ""coherent_color"": ""blue"", ""colorCoherence"": 0.6945, ""phase1_counterbalance"": 1, ""internal_node_id"": ""0.0-17.0-0.0"", ""correct_choice"": ""a"", ""trial_duration"": 3000, ""time_elapsed"": 72355, ""key_press"": 65, ""condition"": ""0"", ""coherent_direction"": ""up"", ""phase"": ""1.2"", ""phase2_counterbalance"": 1, ""correct"": true, ""trial_index"": 18, ""motionCoherence"": 0.4}"
A17D6BK59S31BM:3X65QVEQI2JDZJDCF3CPR5PYOVXCLY,19,1544310273419,"{""rt"": null, ""trial_type"": ""html-keyboard-response"", ""sequence"": 5, ""stimulus"": """", ""phase1_counterbalance"": 1, ""internal_node_id"": ""0.0-17.0-1.0"", ""time_elapsed"": 73560, ""key_press"": null, ""condition"": ""0"", ""uniqueId"": ""A17D6BK59S31BM:3X65QVEQI2JDZJDCF3CPR5PYOVXCLY"", ""phase2_counterbalance"": 1, ""trial_index"": 19}"
A17D6BK59S31BM:3X65QVEQI2JDZJDCF3CPR5PYOVXCLY,20,1544310276427,"{""rt"": -1, ""trial_type"": ""dotmotion"", ""task"": ""color"", ""uniqueId"": ""A17D6BK59S31BM:3X65QVEQI2JDZJDCF3CPR5PYOVXCLY"", ""sequence"": 5, ""coherent_color"": ""red"", ""colorCoherence"": 0.6890000000000001, ""phase1_counterbalance"": 1, ""internal_node_id"": ""0.0-18.0-0.0"", ""correct_choice"": ""l"", ""trial_duration"": 3000, ""time_elapsed"": 76567, ""key_press"": -1, ""condition"": ""0"", ""coherent_direction"": ""down"", ""phase"": ""1.2"", ""phase2_counterbalance"": 1, ""correct"": false, ""trial_index"": 20, ""motionCoherence"": 0.4}"
A17D6BK59S31BM:3X65QVEQI2JDZJDCF3CPR5PYOVXCLY,21,1544310279882,"{""rt"": null, ""trial_type"": ""html-keyboard-response"", ""sequence"": 5, ""stimulus"": """", ""phase1_counterbalance"": 1, ""internal_node_id"": ""0.0-18.0-1.0"", ""time_elapsed"": 80023, ""key_press"": null, ""condition"": ""0"", ""uniqueId"": ""A17D6BK59S31BM:3X65QVEQI2JDZJDCF3CPR5PYOVXCLY"", ""phase2_counterbalance"": 1, ""trial_index"": 21}"
A17D6BK59S31BM:3X65QVEQI2JDZJDCF3CPR5PYOVXCLY,22,1544310281899,"{""rt"": 373.3000000938773, ""trial_type"": ""dotmotion"", ""task"": ""color"", ""uniqueId"": ""A17D6BK59S31BM:3X65QVEQI2JDZJDCF3CPR5PYOVXCLY"", ""sequence"": 5, ""coherent_color"": ""red"", ""colorCoherence"": 0.6990000000000001, ""phase1_counterbalance"": 1, ""internal_node_id"": ""0.0-19.0-0.0"", ""correct_choice"": ""l"", ""trial_duration"": 3000, ""time_elapsed"": 82040, ""key_press"": 65, ""condition"": ""0"", ""coherent_direction"": ""down"", ""phase"": ""1.2"", ""phase2_counterbalance"": 1, ""correct"": false, ""trial_index"": 22, ""motionCoherence"": 0.4}"
A17D6BK59S31BM:3X65QVEQI2JDZJDCF3CPR5PYOVXCLY,23,1544310284854,"{""rt"": null, ""trial_type"": ""html-keyboard-response"", ""sequence"": 5, ""stimulus"": """", ""phase1_counterbalance"": 1, ""internal_node_id"": ""0.0-19.0-1.0"", ""time_elapsed"": 84995, ""key_press"": null, ""condition"": ""0"", ""uniqueId"": ""A17D6BK59S31BM:3X65QVEQI2JDZJDCF3CPR5PYOVXCLY"", ""phase2_counterbalance"": 1, ""trial_index"": 23}"
A17D6BK59S31BM:3X65QVEQI2JDZJDCF3CPR5PYOVXCLY,24,1544310286749,"{""rt"": 385.99999994039536, ""trial_type"": ""dotmotion"", ""task"": ""color"", ""uniqueId"": ""A17D6BK59S31BM:3X65QVEQI2JDZJDCF3CPR5PYOVXCLY"", ""sequence"": 5, ""coherent_color"": ""red"", ""colorCoherence"": 0.7090000000000001, ""phase1_counterbalance"": 1, ""internal_node_id"": ""0.0-20.0-0.0"", ""correct_choice"": ""l"", ""trial_duration"": 3000, ""time_elapsed"": 86890, ""key_press"": 76, ""condition"": ""0"", ""coherent_direction"": ""up"", ""phase"": ""1.2"", ""phase2_counterbalance"": 1, ""correct"": true, ""trial_index"": 24, ""motionCoherence"": 0.4}"
A17D6BK59S31BM:3X65QVEQI2JDZJDCF3CPR5PYOVXCLY,25,1544310287954,"{""rt"": null, ""trial_type"": ""html-keyboard-response"", ""sequence"": 5, ""stimulus"": """", ""phase1_counterbalance"": 1, ""internal_node_id"": ""0.0-20.0-1.0"", ""time_elapsed"": 88095, ""key_press"": null, ""condition"": ""0"", ""uniqueId"": ""A17D6BK59S31BM:3X65QVEQI2JDZJDCF3CPR5PYOVXCLY"", ""phase2_counterbalance"": 1, ""trial_index"": 25}"
A17D6BK59S31BM:3X65QVEQI2JDZJDCF3CPR5PYOVXCLY,26,1544310289863,"{""rt"": 390.0999999605119, ""trial_type"": ""dotmotion"", ""task"": ""color"", ""uniqueId"": ""A17D6BK59S31BM:3X65QVEQI2JDZJDCF3CPR5PYOVXCLY"", ""sequence"": 5, ""coherent_color"": ""blue"", ""colorCoherence"": 0.7035, ""phase1_counterbalance"": 1, ""internal_node_id"": ""0.0-21.0-0.0"", ""correct_choice"": ""a"", ""trial_duration"": 3000, ""time_elapsed"": 90004, ""key_press"": 65, ""condition"": ""0"", ""coherent_direction"": ""down"", ""phase"": ""1.2"", ""phase2_counterbalance"": 1, ""correct"": true, ""trial_index"": 26, ""motionCoherence"": 0.4}"
A17D6BK59S31BM:3X65QVEQI2JDZJDCF3CPR5PYOVXCLY,27,1544310291068,"{""rt"": null, ""trial_type"": ""html-keyboard-response"", ""sequence"": 5, ""stimulus"": """", ""phase1_counterbalance"": 1, ""internal_node_id"": ""0.0-21.0-1.0"", ""time_elapsed"": 91209, ""key_press"": null, ""condition"": ""0"", ""uniqueId"": ""A17D6BK59S31BM:3X65QVEQI2JDZJDCF3CPR5PYOVXCLY"", ""phase2_counterbalance"": 1, ""trial_index"": 27}"
A17D6BK59S31BM:3X65QVEQI2JDZJDCF3CPR5PYOVXCLY,28,1544310293098,"{""rt"": 390.0999999605119, ""trial_type"": ""dotmotion"", ""task"": ""color"", ""uniqueId"": ""A17D6BK59S31BM:3X65QVEQI2JDZJDCF3CPR5PYOVXCLY"", ""sequence"": 5, ""coherent_color"": ""blue"", ""colorCoherence"": 0.698, ""phase1_counterbalance"": 1, ""internal_node_id"": ""0.0-22.0-0.0"", ""correct_choice"": ""a"", ""trial_duration"": 3000, ""time_elapsed"": 93239, ""key_press"": 65, ""condition"": ""0"", ""coherent_direction"": ""up"", ""phase"": ""1.2"", ""phase2_counterbalance"": 1, ""correct"": true, ""trial_index"": 28, ""motionCoherence"": 0.4}"
A17D6BK59S31BM:3X65QVEQI2JDZJDCF3CPR5PYOVXCLY,29,1544310294301,"{""rt"": null, ""trial_type"": ""html-keyboard-response"", ""sequence"": 5, ""stimulus"": """", ""phase1_counterbalance"": 1, ""internal_node_id"": ""0.0-22.0-1.0"", ""time_elapsed"": 94442, ""key_press"": null, ""condition"": ""0"", ""uniqueId"": ""A17D6BK59S31BM:3X65QVEQI2JDZJDCF3CPR5PYOVXCLY"", ""phase2_counterbalance"": 1, ""trial_index"": 29}"
A17D6BK59S31BM:3X65QVEQI2JDZJDCF3CPR5PYOVXCLY,30,1544310296139,"{""rt"": 329.0000001434237, ""trial_type"": ""dotmotion"", ""task"": ""color"", ""uniqueId"": ""A17D6BK59S31BM:3X65QVEQI2JDZJDCF3CPR5PYOVXCLY"", ""sequence"": 5, ""coherent_color"": ""red"", ""colorCoherence"": 0.6925, ""phase1_counterbalance"": 1, ""internal_node_id"": ""0.0-23.0-0.0"", ""correct_choice"": ""l"", ""trial_duration"": 3000, ""time_elapsed"": 96280, ""key_press"": 76, ""condition"": ""0"", ""coherent_direction"": ""up"", ""phase"": ""1.2"", ""phase2_counterbalance"": 1, ""correct"": true, ""trial_index"": 30, ""motionCoherence"": 0.4}"
A17D6BK59S31BM:3X65QVEQI2JDZJDCF3CPR5PYOVXCLY,31,1544310297344,"{""rt"": null, ""trial_type"": ""html-keyboard-response"", ""sequence"": 5, ""stimulus"": """", ""phase1_counterbalance"": 1, ""internal_node_id"": ""0.0-23.0-1.0"", ""time_elapsed"": 97485, ""key_press"": null, ""condition"": ""0"", ""uniqueId"": ""A17D6BK59S31BM:3X65QVEQI2JDZJDCF3CPR5PYOVXCLY"", ""phase2_counterbalance"": 1, ""trial_index"": 31}"
A17D6BK59S31BM:3X65QVEQI2JDZJDCF3CPR5PYOVXCLY,32,1544310299264,"{""rt"": 412.6999999862164, ""trial_type"": ""dotmotion"", ""task"": ""color"", ""uniqueId"": ""A17D6BK59S31BM:3X65QVEQI2JDZJDCF3CPR5PYOVXCLY"", ""sequence"": 5, ""coherent_color"": ""blue"", ""colorCoherence"": 0.687, ""phase1_counterbalance"": 1, ""internal_node_id"": ""0.0-24.0-0.0"", ""correct_choice"": ""a"", ""trial_duration"": 3000, ""time_elapsed"": 99405, ""key_press"": 65, ""condition"": ""0"", ""coherent_direction"": ""up"", ""phase"": ""1.2"", ""phase2_counterbalance"": 1, ""correct"": true, ""trial_index"": 32, ""motionCoherence"": 0.4}"
A17D6BK59S31BM:3X65QVEQI2JDZJDCF3CPR5PYOVXCLY,33,1544310300471,"{""rt"": null, ""trial_type"": ""html-keyboard-response"", ""sequence"": 5, ""stimulus"": """", ""phase1_counterbalance"": 1, ""internal_node_id"": ""0.0-24.0-1.0"", ""time_elapsed"": 100612, ""key_press"": null, ""condition"": ""0"", ""uniqueId"": ""A17D6BK59S31BM:3X65QVEQI2JDZJDCF3CPR5PYOVXCLY"", ""phase2_counterbalance"": 1, ""trial_index"": 33}"
A17D6BK59S31BM:3X65QVEQI2JDZJDCF3CPR5PYOVXCLY,34,1544310302388,"{""rt"": 409.20000011101365, ""trial_type"": ""dotmotion"", ""task"": ""color"", ""uniqueId"": ""A17D6BK59S31BM:3X65QVEQI2JDZJDCF3CPR5PYOVXCLY"", ""sequence"": 5, ""coherent_color"": ""blue"", ""colorCoherence"": 0.6815, ""phase1_counterbalance"": 1, ""internal_node_id"": ""0.0-25.0-0.0"", ""correct_choice"": ""a"", ""trial_duration"": 3000, ""time_elapsed"": 102529, ""key_press"": 65, ""condition"": ""0"", ""coherent_direction"": ""up"", ""phase"": ""1.2"", ""phase2_counterbalance"": 1, ""correct"": true, ""trial_index"": 34, ""motionCoherence"": 0.4}"
A17D6BK59S31BM:3X65QVEQI2JDZJDCF3CPR5PYOVXCLY,35,1544310303592,"{""rt"": null, ""trial_type"": ""html-keyboard-response"", ""sequence"": 5, ""stimulus"": """", ""phase1_counterbalance"": 1, ""internal_node_id"": ""0.0-25.0-1.0"", ""time_elapsed"": 103733, ""key_press"": null, ""condition"": ""0"", ""uniqueId"": ""A17D6BK59S31BM:3X65QVEQI2JDZJDCF3CPR5PYOVXCLY"", ""phase2_counterbalance"": 1, ""trial_index"": 35}"
A17D6BK59S31BM:3X65QVEQI2JDZJDCF3CPR5PYOVXCLY,36,1544310305811,"{""rt"": 576.8000001553446, ""trial_type"": ""dotmotion"", ""task"": ""color"", ""uniqueId"": ""A17D6BK59S31BM:3X65QVEQI2JDZJDCF3CPR5PYOVXCLY"", ""sequence"": 5, ""coherent_color"": ""red"", ""colorCoherence"": 0.6759999999999999, ""phase1_counterbalance"": 1, ""internal_node_id"": ""0.0-26.0-0.0"", ""correct_choice"": ""l"", ""trial_duration"": 3000, ""time_elapsed"": 105952, ""key_press"": 76, ""condition"": ""0"", ""coherent_direction"": ""down"", ""phase"": ""1.2"", ""phase2_counterbalance"": 1, ""correct"": true, ""trial_index"": 36, ""motionCoherence"": 0.4}"
A17D6BK59S31BM:3X65QVEQI2JDZJDCF3CPR5PYOVXCLY,37,1544310307018,"{""rt"": null, ""trial_type"": ""html-keyboard-response"", ""sequence"": 5, ""stimulus"": """", ""phase1_counterbalance"": 1, ""internal_node_id"": ""0.0-26.0-1.0"", ""time_elapsed"": 107158, ""key_press"": null, ""condition"": ""0"", ""uniqueId"": ""A17D6BK59S31BM:3X65QVEQI2JDZJDCF3CPR5PYOVXCLY"", ""phase2_counterbalance"": 1, ""trial_index"": 37}"
A17D6BK59S31BM:3X65QVEQI2JDZJDCF3CPR5PYOVXCLY,38,1544310308871,"{""rt"": 344.4000000599772, ""trial_type"": ""dotmotion"", ""task"": ""color"", ""uniqueId"": ""A17D6BK59S31BM:3X65QVEQI2JDZJDCF3CPR5PYOVXCLY"", ""sequence"": 5, ""coherent_color"": ""red"", ""colorCoherence"": 0.6705, ""phase1_counterbalance"": 1, ""internal_node_id"": ""0.0-27.0-0.0"", ""correct_choice"": ""l"", ""trial_duration"": 3000, ""time_elapsed"": 109012, ""key_press"": 76, ""condition"": ""0"", ""coherent_direction"": ""up"", ""phase"": ""1.2"", ""phase2_counterbalance"": 1, ""correct"": true, ""trial_index"": 38, ""motionCoherence"": 0.4}"
A17D6BK59S31BM:3X65QVEQI2JDZJDCF3CPR5PYOVXCLY,39,1544310310076,"{""rt"": null, ""trial_type"": ""html-keyboard-response"", ""sequence"": 5, ""stimulus"": """", ""phase1_counterbalance"": 1, ""internal_node_id"": ""0.0-27.0-1.0"", ""time_elapsed"": 110217, ""key_press"": null, ""condition"": ""0"", ""uniqueId"": ""A17D6BK59S31BM:3X65QVEQI2JDZJDCF3CPR5PYOVXCLY"", ""phase2_counterbalance"": 1, ""trial_index"": 39}"
A17D6BK59S31BM:3X65QVEQI2JDZJDCF3CPR5PYOVXCLY,40,1544310312021,"{""rt"": 435.4999999050051, ""trial_type"": ""dotmotion"", ""task"": ""color"", ""uniqueId"": ""A17D6BK59S31BM:3X65QVEQI2JDZJDCF3CPR5PYOVXCLY"", ""sequence"": 5, ""coherent_color"": ""red"", ""colorCoherence"": 0.665, ""phase1_counterbalance"": 1, ""internal_node_id"": ""0.0-28.0-0.0"", ""correct_choice"": ""l"", ""trial_duration"": 3000, ""time_elapsed"": 112162, ""key_press"": 76, ""condition"": ""0"", ""coherent_direction"": ""down"", ""phase"": ""1.2"", ""phase2_counterbalance"": 1, ""correct"": true, ""trial_index"": 40, ""motionCoherence"": 0.4}"
A17D6BK59S31BM:3X65QVEQI2JDZJDCF3CPR5PYOVXCLY,41,1544310313227,"{""rt"": null, ""trial_type"": ""html-keyboard-response"", ""sequence"": 5, ""stimulus"": """", ""phase1_counterbalance"": 1, ""internal_node_id"": ""0.0-28.0-1.0"", ""time_elapsed"": 113368, ""key_press"": null, ""condition"": ""0"", ""uniqueId"": ""A17D6BK59S31BM:3X65QVEQI2JDZJDCF3CPR5PYOVXCLY"", ""phase2_counterbalance"": 1, ""trial_index"": 41}"
A17D6BK59S31BM:3X65QVEQI2JDZJDCF3CPR5PYOVXCLY,42,1544310315179,"{""rt"": 443.39999998919666, ""trial_type"": ""dotmotion"", ""task"": ""color"", ""uniqueId"": ""A17D6BK59S31BM:3X65QVEQI2JDZJDCF3CPR5PYOVXCLY"", ""sequence"": 5, ""coherent_color"": ""blue"", ""colorCoherence"": 0.6595, ""phase1_counterbalance"": 1, ""internal_node_id"": ""0.0-29.0-0.0"", ""correct_choice"": ""a"", ""trial_duration"": 3000, ""time_elapsed"": 115320, ""key_press"": 65, ""condition"": ""0"", ""coherent_direction"": ""down"", ""phase"": ""1.2"", ""phase2_counterbalance"": 1, ""correct"": true, ""trial_index"": 42, ""motionCoherence"": 0.4}"
A17D6BK59S31BM:3X65QVEQI2JDZJDCF3CPR5PYOVXCLY,43,1544310316384,"{""rt"": null, ""trial_type"": ""html-keyboard-response"", ""sequence"": 5, ""stimulus"": """", ""phase1_counterbalance"": 1, ""internal_node_id"": ""0.0-29.0-1.0"", ""time_elapsed"": 116525, ""key_press"": null, ""condition"": ""0"", ""uniqueId"": ""A17D6BK59S31BM:3X65QVEQI2JDZJDCF3CPR5PYOVXCLY"", ""phase2_counterbalance"": 1, ""trial_index"": 43}"
A17D6BK59S31BM:3X65QVEQI2JDZJDCF3CPR5PYOVXCLY,44,1544310318437,"{""rt"": 413.3000001311302, ""trial_type"": ""dotmotion"", ""task"": ""color"", ""uniqueId"": ""A17D6BK59S31BM:3X65QVEQI2JDZJDCF3CPR5PYOVXCLY"", ""sequence"": 5, ""coherent_color"": ""blue"", ""colorCoherence"": 0.6539999999999999, ""phase1_counterbalance"": 1, ""internal_node_id"": ""0.0-30.0-0.0"", ""correct_choice"": ""a"", ""trial_duration"": 3000, ""time_elapsed"": 118577, ""key_press"": 65, ""condition"": ""0"", ""coherent_direction"": ""up"", ""phase"": ""1.2"", ""phase2_counterbalance"": 1, ""correct"": true, ""trial_index"": 44, ""motionCoherence"": 0.4}"
A17D6BK59S31BM:3X65QVEQI2JDZJDCF3CPR5PYOVXCLY,45,1544310319641,"{""rt"": null, ""trial_type"": ""html-keyboard-response"", ""sequence"": 5, ""stimulus"": """", ""phase1_counterbalance"": 1, ""internal_node_id"": ""0.0-30.0-1.0"", ""time_elapsed"": 119782, ""key_press"": null, ""condition"": ""0"", ""uniqueId"": ""A17D6BK59S31BM:3X65QVEQI2JDZJDCF3CPR5PYOVXCLY"", ""phase2_counterbalance"": 1, ""trial_index"": 45}"
A17D6BK59S31BM:3X65QVEQI2JDZJDCF3CPR5PYOVXCLY,46,1544310321561,"{""rt"": 410.90000001713634, ""trial_type"": ""dotmotion"", ""task"": ""color"", ""uniqueId"": ""A17D6BK59S31BM:3X65QVEQI2JDZJDCF3CPR5PYOVXCLY"", ""sequence"": 5, ""coherent_color"": ""blue"", ""colorCoherence"": 0.6485, ""phase1_counterbalance"": 1, ""internal_node_id"": ""0.0-31.0-0.0"", ""correct_choice"": ""a"", ""trial_duration"": 3000, ""time_elapsed"": 121702, ""key_press"": 65, ""condition"": ""0"", ""coherent_direction"": ""down"", ""phase"": ""1.2"", ""phase2_counterbalance"": 1, ""correct"": true, ""trial_index"": 46, ""motionCoherence"": 0.4}"
A17D6BK59S31BM:3X65QVEQI2JDZJDCF3CPR5PYOVXCLY,47,1544310322766,"{""rt"": null, ""trial_type"": ""html-keyboard-response"", ""sequence"": 5, ""stimulus"": """", ""phase1_counterbalance"": 1, ""internal_node_id"": ""0.0-31.0-1.0"", ""time_elapsed"": 122907, ""key_press"": null, ""condition"": ""0"", ""uniqueId"": ""A17D6BK59S31BM:3X65QVEQI2JDZJDCF3CPR5PYOVXCLY"", ""phase2_counterbalance"": 1, ""trial_index"": 47}"
A17D6BK59S31BM:3X65QVEQI2JDZJDCF3CPR5PYOVXCLY,48,1544310324781,"{""rt"": 496.9000001437962, ""trial_type"": ""dotmotion"", ""task"": ""color"", ""uniqueId"": ""A17D6BK59S31BM:3X65QVEQI2JDZJDCF3CPR5PYOVXCLY"", ""sequence"": 5, ""coherent_color"": ""blue"", ""colorCoherence"": 0.643, ""phase1_counterbalance"": 1, ""internal_node_id"": ""0.0-32.0-0.0"", ""correct_choice"": ""a"", ""trial_duration"": 3000, ""time_elapsed"": 124922, ""key_press"": 65, ""condition"": ""0"", ""coherent_direction"": ""down"", ""phase"": ""1.2"", ""phase2_counterbalance"": 1, ""correct"": true, ""trial_index"": 48, ""motionCoherence"": 0.4}"
A17D6BK59S31BM:3X65QVEQI2JDZJDCF3CPR5PYOVXCLY,49,1544310325987,"{""rt"": null, ""trial_type"": ""html-keyboard-response"", ""sequence"": 5, ""stimulus"": """", ""phase1_counterbalance"": 1, ""internal_node_id"": ""0.0-32.0-1.0"", ""time_elapsed"": 126128, ""key_press"": null, ""condition"": ""0"", ""uniqueId"": ""A17D6BK59S31BM:3X65QVEQI2JDZJDCF3CPR5PYOVXCLY"", ""phase2_counterbalance"": 1, ""trial_index"": 49}"
A17D6BK59S31BM:3X65QVEQI2JDZJDCF3CPR5PYOVXCLY,50,1544310327785,"{""rt"": 287.8999998793006, ""trial_type"": ""dotmotion"", ""task"": ""color"", ""uniqueId"": ""A17D6BK59S31BM:3X65QVEQI2JDZJDCF3CPR5PYOVXCLY"", ""sequence"": 5, ""coherent_color"": ""blue"", ""colorCoherence"": 0.6375, ""phase1_counterbalance"": 1, ""internal_node_id"": ""0.0-33.0-0.0"", ""correct_choice"": ""a"", ""trial_duration"": 3000, ""time_elapsed"": 127926, ""key_press"": 76, ""condition"": ""0"", ""coherent_direction"": ""down"", ""phase"": ""1.2"", ""phase2_counterbalance"": 1, ""correct"": false, ""trial_index"": 50, ""motionCoherence"": 0.4}"
A17D6BK59S31BM:3X65QVEQI2JDZJDCF3CPR5PYOVXCLY,51,1544310330740,"{""rt"": null, ""trial_type"": ""html-keyboard-response"", ""sequence"": 5, ""stimulus"": """", ""phase1_counterbalance"": 1, ""internal_node_id"": ""0.0-33.0-1.0"", ""time_elapsed"": 130881, ""key_press"": null, ""condition"": ""0"", ""uniqueId"": ""A17D6BK59S31BM:3X65QVEQI2JDZJDCF3CPR5PYOVXCLY"", ""phase2_counterbalance"": 1, ""trial_index"": 51}"
A17D6BK59S31BM:3X65QVEQI2JDZJDCF3CPR5PYOVXCLY,52,1544310332763,"{""rt"": 383.6999998893589, ""trial_type"": ""dotmotion"", ""task"": ""color"", ""uniqueId"": ""A17D6BK59S31BM:3X65QVEQI2JDZJDCF3CPR5PYOVXCLY"", ""sequence"": 5, ""coherent_color"": ""red"", ""colorCoherence"": 0.6475, ""phase1_counterbalance"": 1, ""internal_node_id"": ""0.0-34.0-0.0"", ""correct_choice"": ""l"", ""trial_duration"": 3000, ""time_elapsed"": 132904, ""key_press"": 76, ""condition"": ""0"", ""coherent_direction"": ""up"", ""phase"": ""1.2"", ""phase2_counterbalance"": 1, ""correct"": true, ""trial_index"": 52, ""motionCoherence"": 0.4}"
A17D6BK59S31BM:3X65QVEQI2JDZJDCF3CPR5PYOVXCLY,53,1544310333968,"{""rt"": null, ""trial_type"": ""html-keyboard-response"", ""sequence"": 5, ""stimulus"": """", ""phase1_counterbalance"": 1, ""internal_node_id"": ""0.0-34.0-1.0"", ""time_elapsed"": 134109, ""key_press"": null, ""condition"": ""0"", ""uniqueId"": ""A17D6BK59S31BM:3X65QVEQI2JDZJDCF3CPR5PYOVXCLY"", ""phase2_counterbalance"": 1, ""trial_index"": 53}"
A17D6BK59S31BM:3X65QVEQI2JDZJDCF3CPR5PYOVXCLY,54,1544310335836,"{""rt"": 358.0000000074506, ""trial_type"": ""dotmotion"", ""task"": ""color"", ""uniqueId"": ""A17D6BK59S31BM:3X65QVEQI2JDZJDCF3CPR5PYOVXCLY"", ""sequence"": 5, ""coherent_color"": ""blue"", ""colorCoherence"": 0.6419999999999999, ""phase1_counterbalance"": 1, ""internal_node_id"": ""0.0-35.0-0.0"", ""correct_choice"": ""a"", ""trial_duration"": 3000, ""time_elapsed"": 135977, ""key_press"": 65, ""condition"": ""0"", ""coherent_direction"": ""down"", ""phase"": ""1.2"", ""phase2_counterbalance"": 1, ""correct"": true, ""trial_index"": 54, ""motionCoherence"": 0.4}"
A17D6BK59S31BM:3X65QVEQI2JDZJDCF3CPR5PYOVXCLY,55,1544310337040,"{""rt"": null, ""trial_type"": ""html-keyboard-response"", ""sequence"": 5, ""stimulus"": """", ""phase1_counterbalance"": 1, ""internal_node_id"": ""0.0-35.0-1.0"", ""time_elapsed"": 137181, ""key_press"": null, ""condition"": ""0"", ""uniqueId"": ""A17D6BK59S31BM:3X65QVEQI2JDZJDCF3CPR5PYOVXCLY"", ""phase2_counterbalance"": 1, ""trial_index"": 55}"
A17D6BK59S31BM:3X65QVEQI2JDZJDCF3CPR5PYOVXCLY,56,1544310338978,"{""rt"": 428.200000198558, ""trial_type"": ""dotmotion"", ""task"": ""color"", ""uniqueId"": ""A17D6BK59S31BM:3X65QVEQI2JDZJDCF3CPR5PYOVXCLY"", ""sequence"": 5, ""coherent_color"": ""blue"", ""colorCoherence"": 0.6365, ""phase1_counterbalance"": 1, ""internal_node_id"": ""0.0-36.0-0.0"", ""correct_choice"": ""a"", ""trial_duration"": 3000, ""time_elapsed"": 139119, ""key_press"": 65, ""condition"": ""0"", ""coherent_direction"": ""up"", ""phase"": ""1.2"", ""phase2_counterbalance"": 1, ""correct"": true, ""trial_index"": 56, ""motionCoherence"": 0.4}"
A17D6BK59S31BM:3X65QVEQI2JDZJDCF3CPR5PYOVXCLY,57,1544310340183,"{""rt"": null, ""trial_type"": ""html-keyboard-response"", ""sequence"": 5, ""stimulus"": """", ""phase1_counterbalance"": 1, ""internal_node_id"": ""0.0-36.0-1.0"", ""time_elapsed"": 140324, ""key_press"": null, ""condition"": ""0"", ""uniqueId"": ""A17D6BK59S31BM:3X65QVEQI2JDZJDCF3CPR5PYOVXCLY"", ""phase2_counterbalance"": 1, ""trial_index"": 57}"
A17D6BK59S31BM:3X65QVEQI2JDZJDCF3CPR5PYOVXCLY,58,1544310342261,"{""rt"": 569.3999999202788, ""trial_type"": ""dotmotion"", ""task"": ""color"", ""uniqueId"": ""A17D6BK59S31BM:3X65QVEQI2JDZJDCF3CPR5PYOVXCLY"", ""sequence"": 5, ""coherent_color"": ""blue"", ""colorCoherence"": 0.631, ""phase1_counterbalance"": 1, ""internal_node_id"": ""0.0-37.0-0.0"", ""correct_choice"": ""a"", ""trial_duration"": 3000, ""time_elapsed"": 142402, ""key_press"": 65, ""condition"": ""0"", ""coherent_direction"": ""down"", ""phase"": ""1.2"", ""phase2_counterbalance"": 1, ""correct"": true, ""trial_index"": 58, ""motionCoherence"": 0.4}"
A17D6BK59S31BM:3X65QVEQI2JDZJDCF3CPR5PYOVXCLY,59,1544310343467,"{""rt"": null, ""trial_type"": ""html-keyboard-response"", ""sequence"": 5, ""stimulus"": """", ""phase1_counterbalance"": 1, ""internal_node_id"": ""0.0-37.0-1.0"", ""time_elapsed"": 143608, ""key_press"": null, ""condition"": ""0"", ""uniqueId"": ""A17D6BK59S31BM:3X65QVEQI2JDZJDCF3CPR5PYOVXCLY"", ""phase2_counterbalance"": 1, ""trial_index"": 59}"
A17D6BK59S31BM:3X65QVEQI2JDZJDCF3CPR5PYOVXCLY,60,1544310345417,"{""rt"": 304.09999983385205, ""trial_type"": ""dotmotion"", ""task"": ""color"", ""uniqueId"": ""A17D6BK59S31BM:3X65QVEQI2JDZJDCF3CPR5PYOVXCLY"", ""sequence"": 5, ""coherent_color"": ""red"", ""colorCoherence"": 0.6255, ""phase1_counterbalance"": 1, ""internal_node_id"": ""0.0-38.0-0.0"", ""correct_choice"": ""l"", ""trial_duration"": 3000, ""time_elapsed"": 145557, ""key_press"": 76, ""condition"": ""0"", ""coherent_direction"": ""up"", ""phase"": ""1.2"", ""phase2_counterbalance"": 1, ""correct"": true, ""trial_index"": 60, ""motionCoherence"": 0.4}"
A17D6BK59S31BM:3X65QVEQI2JDZJDCF3CPR5PYOVXCLY,61,1544310346624,"{""rt"": null, ""trial_type"": ""html-keyboard-response"", ""sequence"": 5, ""stimulus"": """", ""phase1_counterbalance"": 1, ""internal_node_id"": ""0.0-38.0-1.0"", ""time_elapsed"": 146765, ""key_press"": null, ""condition"": ""0"", ""uniqueId"": ""A17D6BK59S31BM:3X65QVEQI2JDZJDCF3CPR5PYOVXCLY"", ""phase2_counterbalance"": 1, ""trial_index"": 61}"
A17D6BK59S31BM:3X65QVEQI2JDZJDCF3CPR5PYOVXCLY,62,1544310348481,"{""rt"": 348.9000000990927, ""trial_type"": ""dotmotion"", ""task"": ""color"", ""uniqueId"": ""A17D6BK59S31BM:3X65QVEQI2JDZJDCF3CPR5PYOVXCLY"", ""sequence"": 5, ""coherent_color"": ""blue"", ""colorCoherence"": 0.6199999999999999, ""phase1_counterbalance"": 1, ""internal_node_id"": ""0.0-39.0-0.0"", ""correct_choice"": ""a"", ""trial_duration"": 3000, ""time_elapsed"": 148621, ""key_press"": 65, ""condition"": ""0"", ""coherent_direction"": ""down"", ""phase"": ""1.2"", ""phase2_counterbalance"": 1, ""correct"": true, ""trial_index"": 62, ""motionCoherence"": 0.4}"
A17D6BK59S31BM:3X65QVEQI2JDZJDCF3CPR5PYOVXCLY,63,1544310349685,"{""rt"": null, ""trial_type"": ""html-keyboard-response"", ""sequence"": 5, ""stimulus"": """", ""phase1_counterbalance"": 1, ""internal_node_id"": ""0.0-39.0-1.0"", ""time_elapsed"": 149826, ""key_press"": null, ""condition"": ""0"", ""uniqueId"": ""A17D6BK59S31BM:3X65QVEQI2JDZJDCF3CPR5PYOVXCLY"", ""phase2_counterbalance"": 1, ""trial_index"": 63}"
A17D6BK59S31BM:3X65QVEQI2JDZJDCF3CPR5PYOVXCLY,64,1544310351603,"{""rt"": 408.4000000730157, ""trial_type"": ""dotmotion"", ""task"": ""color"", ""uniqueId"": ""A17D6BK59S31BM:3X65QVEQI2JDZJDCF3CPR5PYOVXCLY"", ""sequence"": 5, ""coherent_color"": ""red"", ""colorCoherence"": 0.6144999999999999, ""phase1_counterbalance"": 1, ""internal_node_id"": ""0.0-40.0-0.0"", ""correct_choice"": ""l"", ""trial_duration"": 3000, ""time_elapsed"": 151744, ""key_press"": 76, ""condition"": ""0"", ""coherent_direction"": ""down"", ""phase"": ""1.2"", ""phase2_counterbalance"": 1, ""correct"": true, ""trial_index"": 64, ""motionCoherence"": 0.4}"
A17D6BK59S31BM:3X65QVEQI2JDZJDCF3CPR5PYOVXCLY,65,1544310352809,"{""rt"": null, ""trial_type"": ""html-keyboard-response"", ""sequence"": 5, ""stimulus"": """", ""phase1_counterbalance"": 1, ""internal_node_id"": ""0.0-40.0-1.0"", ""time_elapsed"": 152950, ""key_press"": null, ""condition"": ""0"", ""uniqueId"": ""A17D6BK59S31BM:3X65QVEQI2JDZJDCF3CPR5PYOVXCLY"", ""phase2_counterbalance"": 1, ""trial_index"": 65}"
A17D6BK59S31BM:3X65QVEQI2JDZJDCF3CPR5PYOVXCLY,66,1544310354630,"{""rt"": 312.7999999560416, ""trial_type"": ""dotmotion"", ""task"": ""color"", ""uniqueId"": ""A17D6BK59S31BM:3X65QVEQI2JDZJDCF3CPR5PYOVXCLY"", ""sequence"": 5, ""coherent_color"": ""blue"", ""colorCoherence"": 0.609, ""phase1_counterbalance"": 1, ""internal_node_id"": ""0.0-41.0-0.0"", ""correct_choice"": ""a"", ""trial_duration"": 3000, ""time_elapsed"": 154771, ""key_press"": 65, ""condition"": ""0"", ""coherent_direction"": ""up"", ""phase"": ""1.2"", ""phase2_counterbalance"": 1, ""correct"": true, ""trial_index"": 66, ""motionCoherence"": 0.4}"
A17D6BK59S31BM:3X65QVEQI2JDZJDCF3CPR5PYOVXCLY,67,1544310355834,"{""rt"": null, ""trial_type"": ""html-keyboard-response"", ""sequence"": 5, ""stimulus"": """", ""phase1_counterbalance"": 1, ""internal_node_id"": ""0.0-41.0-1.0"", ""time_elapsed"": 155975, ""key_press"": null, ""condition"": ""0"", ""uniqueId"": ""A17D6BK59S31BM:3X65QVEQI2JDZJDCF3CPR5PYOVXCLY"", ""phase2_counterbalance"": 1, ""trial_index"": 67}"
A17D6BK59S31BM:3X65QVEQI2JDZJDCF3CPR5PYOVXCLY,68,1544310357753,"{""rt"": 277.9999999329448, ""trial_type"": ""dotmotion"", ""task"": ""color"", ""uniqueId"": ""A17D6BK59S31BM:3X65QVEQI2JDZJDCF3CPR5PYOVXCLY"", ""sequence"": 5, ""coherent_color"": ""red"", ""colorCoherence"": 0.6034999999999999, ""phase1_counterbalance"": 1, ""internal_node_id"": ""0.0-42.0-0.0"", ""correct_choice"": ""l"", ""trial_duration"": 3000, ""time_elapsed"": 157894, ""key_press"": 76, ""condition"": ""0"", ""coherent_direction"": ""up"", ""phase"": ""1.2"", ""phase2_counterbalance"": 1, ""correct"": true, ""trial_index"": 68, ""motionCoherence"": 0.4}"
A17D6BK59S31BM:3X65QVEQI2JDZJDCF3CPR5PYOVXCLY,69,1544310358959,"{""rt"": null, ""trial_type"": ""html-keyboard-response"", ""sequence"": 5, ""stimulus"": """", ""phase1_counterbalance"": 1, ""internal_node_id"": ""0.0-42.0-1.0"", ""time_elapsed"": 159100, ""key_press"": null, ""condition"": ""0"", ""uniqueId"": ""A17D6BK59S31BM:3X65QVEQI2JDZJDCF3CPR5PYOVXCLY"", ""phase2_counterbalance"": 1, ""trial_index"": 69}"
A17D6BK59S31BM:3X65QVEQI2JDZJDCF3CPR5PYOVXCLY,70,1544310360772,"{""rt"": 296.6000000014901, ""trial_type"": ""dotmotion"", ""task"": ""color"", ""uniqueId"": ""A17D6BK59S31BM:3X65QVEQI2JDZJDCF3CPR5PYOVXCLY"", ""sequence"": 5, ""coherent_color"": ""red"", ""colorCoherence"": 0.5979999999999999, ""phase1_counterbalance"": 1, ""internal_node_id"": ""0.0-43.0-0.0"", ""correct_choice"": ""l"", ""trial_duration"": 3000, ""time_elapsed"": 160913, ""key_press"": 76, ""condition"": ""0"", ""coherent_direction"": ""up"", ""phase"": ""1.2"", ""phase2_counterbalance"": 1, ""correct"": true, ""trial_index"": 70, ""motionCoherence"": 0.4}"
A17D6BK59S31BM:3X65QVEQI2JDZJDCF3CPR5PYOVXCLY,71,1544310361977,"{""rt"": null, ""trial_type"": ""html-keyboard-response"", ""sequence"": 5, ""stimulus"": """", ""phase1_counterbalance"": 1, ""internal_node_id"": ""0.0-43.0-1.0"", ""time_elapsed"": 162117, ""key_press"": null, ""condition"": ""0"", ""uniqueId"": ""A17D6BK59S31BM:3X65QVEQI2JDZJDCF3CPR5PYOVXCLY"", ""phase2_counterbalance"": 1, ""trial_index"": 71}"
A17D6BK59S31BM:3X65QVEQI2JDZJDCF3CPR5PYOVXCLY,72,1544310363769,"{""rt"": 285.39999993517995, ""trial_type"": ""dotmotion"", ""task"": ""color"", ""uniqueId"": ""A17D6BK59S31BM:3X65QVEQI2JDZJDCF3CPR5PYOVXCLY"", ""sequence"": 5, ""coherent_color"": ""blue"", ""colorCoherence"": 0.5924999999999999, ""phase1_counterbalance"": 1, ""internal_node_id"": ""0.0-44.0-0.0"", ""correct_choice"": ""a"", ""trial_duration"": 3000, ""time_elapsed"": 163910, ""key_press"": 76, ""condition"": ""0"", ""coherent_direction"": ""up"", ""phase"": ""1.2"", ""phase2_counterbalance"": 1, ""correct"": false, ""trial_index"": 72, ""motionCoherence"": 0.4}"
A17D6BK59S31BM:3X65QVEQI2JDZJDCF3CPR5PYOVXCLY,73,1544310366725,"{""rt"": null, ""trial_type"": ""html-keyboard-response"", ""sequence"": 5, ""stimulus"": """", ""phase1_counterbalance"": 1, ""internal_node_id"": ""0.0-44.0-1.0"", ""time_elapsed"": 166865, ""key_press"": null, ""condition"": ""0"", ""uniqueId"": ""A17D6BK59S31BM:3X65QVEQI2JDZJDCF3CPR5PYOVXCLY"", ""phase2_counterbalance"": 1, ""trial_index"": 73}"
A17D6BK59S31BM:3X65QVEQI2JDZJDCF3CPR5PYOVXCLY,74,1544310368671,"{""rt"": 303.2999997958541, ""trial_type"": ""dotmotion"", ""task"": ""color"", ""uniqueId"": ""A17D6BK59S31BM:3X65QVEQI2JDZJDCF3CPR5PYOVXCLY"", ""sequence"": 5, ""coherent_color"": ""red"", ""colorCoherence"": 0.6024999999999999, ""phase1_counterbalance"": 1, ""internal_node_id"": ""0.0-45.0-0.0"", ""correct_choice"": ""l"", ""trial_duration"": 3000, ""time_elapsed"": 168812, ""key_press"": 76, ""condition"": ""0"", ""coherent_direction"": ""up"", ""phase"": ""1.2"", ""phase2_counterbalance"": 1, ""correct"": true, ""trial_index"": 74, ""motionCoherence"": 0.4}"
A17D6BK59S31BM:3X65QVEQI2JDZJDCF3CPR5PYOVXCLY,75,1544310369875,"{""rt"": null, ""trial_type"": ""html-keyboard-response"", ""sequence"": 5, ""stimulus"": """", ""phase1_counterbalance"": 1, ""internal_node_id"": ""0.0-45.0-1.0"", ""time_elapsed"": 170015, ""key_press"": null, ""condition"": ""0"", ""uniqueId"": ""A17D6BK59S31BM:3X65QVEQI2JDZJDCF3CPR5PYOVXCLY"", ""phase2_counterbalance"": 1, ""trial_index"": 75}"
A17D6BK59S31BM:3X65QVEQI2JDZJDCF3CPR5PYOVXCLY,76,1544310371768,"{""rt"": 383.9000000152737, ""trial_type"": ""dotmotion"", ""task"": ""color"", ""uniqueId"": ""A17D6BK59S31BM:3X65QVEQI2JDZJDCF3CPR5PYOVXCLY"", ""sequence"": 5, ""coherent_color"": ""red"", ""colorCoherence"": 0.5969999999999999, ""phase1_counterbalance"": 1, ""internal_node_id"": ""0.0-46.0-0.0"", ""correct_choice"": ""l"", ""trial_duration"": 3000, ""time_elapsed"": 171909, ""key_press"": 65, ""condition"": ""0"", ""coherent_direction"": ""down"", ""phase"": ""1.2"", ""phase2_counterbalance"": 1, ""correct"": false, ""trial_index"": 76, ""motionCoherence"": 0.4}"
A17D6BK59S31BM:3X65QVEQI2JDZJDCF3CPR5PYOVXCLY,77,1544310374722,"{""rt"": null, ""trial_type"": ""html-keyboard-response"", ""sequence"": 5, ""stimulus"": """", ""phase1_counterbalance"": 1, ""internal_node_id"": ""0.0-46.0-1.0"", ""time_elapsed"": 174863, ""key_press"": null, ""condition"": ""0"", ""uniqueId"": ""A17D6BK59S31BM:3X65QVEQI2JDZJDCF3CPR5PYOVXCLY"", ""phase2_counterbalance"": 1, ""trial_index"": 77}"
A17D6BK59S31BM:3X65QVEQI2JDZJDCF3CPR5PYOVXCLY,78,1544310376536,"{""rt"": 304.2000001296401, ""trial_type"": ""dotmotion"", ""task"": ""color"", ""uniqueId"": ""A17D6BK59S31BM:3X65QVEQI2JDZJDCF3CPR5PYOVXCLY"", ""sequence"": 5, ""coherent_color"": ""blue"", ""colorCoherence"": 0.6069999999999999, ""phase1_counterbalance"": 1, ""internal_node_id"": ""0.0-47.0-0.0"", ""correct_choice"": ""a"", ""trial_duration"": 3000, ""time_elapsed"": 176677, ""key_press"": 65, ""condition"": ""0"", ""coherent_direction"": ""up"", ""phase"": ""1.2"", ""phase2_counterbalance"": 1, ""correct"": true, ""trial_index"": 78, ""motionCoherence"": 0.4}"
A17D6BK59S31BM:3X65QVEQI2JDZJDCF3CPR5PYOVXCLY,79,1544310377741,"{""rt"": null, ""trial_type"": ""html-keyboard-response"", ""sequence"": 5, ""stimulus"": """", ""phase1_counterbalance"": 1, ""internal_node_id"": ""0.0-47.0-1.0"", ""time_elapsed"": 177882, ""key_press"": null, ""condition"": ""0"", ""uniqueId"": ""A17D6BK59S31BM:3X65QVEQI2JDZJDCF3CPR5PYOVXCLY"", ""phase2_counterbalance"": 1, ""trial_index"": 79}"
A17D6BK59S31BM:3X65QVEQI2JDZJDCF3CPR5PYOVXCLY,80,1544310379748,"{""rt"": 361.1999999266118, ""trial_type"": ""dotmotion"", ""task"": ""color"", ""uniqueId"": ""A17D6BK59S31BM:3X65QVEQI2JDZJDCF3CPR5PYOVXCLY"", ""sequence"": 5, ""coherent_color"": ""red"", ""colorCoherence"": 0.6014999999999999, ""phase1_counterbalance"": 1, ""internal_node_id"": ""0.0-48.0-0.0"", ""correct_choice"": ""l"", ""trial_duration"": 3000, ""time_elapsed"": 179889, ""key_press"": 65, ""condition"": ""0"", ""coherent_direction"": ""up"", ""phase"": ""1.2"", ""phase2_counterbalance"": 1, ""correct"": false, ""trial_index"": 80, ""motionCoherence"": 0.4}"
A17D6BK59S31BM:3X65QVEQI2JDZJDCF3CPR5PYOVXCLY,81,1544310382703,"{""rt"": null, ""trial_type"": ""html-keyboard-response"", ""sequence"": 5, ""stimulus"": """", ""phase1_counterbalance"": 1, ""internal_node_id"": ""0.0-48.0-1.0"", ""time_elapsed"": 182844, ""key_press"": null, ""condition"": ""0"", ""uniqueId"": ""A17D6BK59S31BM:3X65QVEQI2JDZJDCF3CPR5PYOVXCLY"", ""phase2_counterbalance"": 1, ""trial_index"": 81}"
A17D6BK59S31BM:3X65QVEQI2JDZJDCF3CPR5PYOVXCLY,82,1544310384532,"{""rt"": 320.19999995827675, ""trial_type"": ""dotmotion"", ""task"": ""color"", ""uniqueId"": ""A17D6BK59S31BM:3X65QVEQI2JDZJDCF3CPR5PYOVXCLY"", ""sequence"": 5, ""coherent_color"": ""blue"", ""colorCoherence"": 0.6114999999999999, ""phase1_counterbalance"": 1, ""internal_node_id"": ""0.0-49.0-0.0"", ""correct_choice"": ""a"", ""trial_duration"": 3000, ""time_elapsed"": 184673, ""key_press"": 65, ""condition"": ""0"", ""coherent_direction"": ""up"", ""phase"": ""1.2"", ""phase2_counterbalance"": 1, ""correct"": true, ""trial_index"": 82, ""motionCoherence"": 0.4}"
A17D6BK59S31BM:3X65QVEQI2JDZJDCF3CPR5PYOVXCLY,83,1544310385737,"{""rt"": null, ""trial_type"": ""html-keyboard-response"", ""sequence"": 5, ""stimulus"": """", ""phase1_counterbalance"": 1, ""internal_node_id"": ""0.0-49.0-1.0"", ""time_elapsed"": 185878, ""key_press"": null, ""condition"": ""0"", ""uniqueId"": ""A17D6BK59S31BM:3X65QVEQI2JDZJDCF3CPR5PYOVXCLY"", ""phase2_counterbalance"": 1, ""trial_index"": 83}"
A17D6BK59S31BM:3X65QVEQI2JDZJDCF3CPR5PYOVXCLY,84,1544310387562,"{""rt"": 315.50000002607703, ""trial_type"": ""dotmotion"", ""task"": ""color"", ""uniqueId"": ""A17D6BK59S31BM:3X65QVEQI2JDZJDCF3CPR5PYOVXCLY"", ""sequence"": 5, ""coherent_color"": ""red"", ""colorCoherence"": 0.6059999999999999, ""phase1_counterbalance"": 1, ""internal_node_id"": ""0.0-50.0-0.0"", ""correct_choice"": ""l"", ""trial_duration"": 3000, ""time_elapsed"": 187703, ""key_press"": 65, ""condition"": ""0"", ""coherent_direction"": ""down"", ""phase"": ""1.2"", ""phase2_counterbalance"": 1, ""correct"": false, ""trial_index"": 84, ""motionCoherence"": 0.4}"
A17D6BK59S31BM:3X65QVEQI2JDZJDCF3CPR5PYOVXCLY,85,1544310390518,"{""rt"": null, ""trial_type"": ""html-keyboard-response"", ""sequence"": 5, ""stimulus"": """", ""phase1_counterbalance"": 1, ""internal_node_id"": ""0.0-50.0-1.0"", ""time_elapsed"": 190658, ""key_press"": null, ""condition"": ""0"", ""uniqueId"": ""A17D6BK59S31BM:3X65QVEQI2JDZJDCF3CPR5PYOVXCLY"", ""phase2_counterbalance"": 1, ""trial_index"": 85}"
A17D6BK59S31BM:3X65QVEQI2JDZJDCF3CPR5PYOVXCLY,86,1544310392470,"{""rt"": 310.7000000309199, ""trial_type"": ""dotmotion"", ""task"": ""color"", ""uniqueId"": ""A17D6BK59S31BM:3X65QVEQI2JDZJDCF3CPR5PYOVXCLY"", ""sequence"": 5, ""coherent_color"": ""blue"", ""colorCoherence"": 0.6159999999999999, ""phase1_counterbalance"": 1, ""internal_node_id"": ""0.0-51.0-0.0"", ""correct_choice"": ""a"", ""trial_duration"": 3000, ""time_elapsed"": 192611, ""key_press"": 65, ""condition"": ""0"", ""coherent_direction"": ""down"", ""phase"": ""1.2"", ""phase2_counterbalance"": 1, ""correct"": true, ""trial_index"": 86, ""motionCoherence"": 0.4}"
A17D6BK59S31BM:3X65QVEQI2JDZJDCF3CPR5PYOVXCLY,87,1544310393675,"{""rt"": null, ""trial_type"": ""html-keyboard-response"", ""sequence"": 5, ""stimulus"": """", ""phase1_counterbalance"": 1, ""internal_node_id"": ""0.0-51.0-1.0"", ""time_elapsed"": 193816, ""key_press"": null, ""condition"": ""0"", ""uniqueId"": ""A17D6BK59S31BM:3X65QVEQI2JDZJDCF3CPR5PYOVXCLY"", ""phase2_counterbalance"": 1, ""trial_index"": 87}"
A17D6BK59S31BM:3X65QVEQI2JDZJDCF3CPR5PYOVXCLY,88,1544310395500,"{""rt"": 317.3999998252839, ""trial_type"": ""dotmotion"", ""task"": ""color"", ""uniqueId"": ""A17D6BK59S31BM:3X65QVEQI2JDZJDCF3CPR5PYOVXCLY"", ""sequence"": 5, ""coherent_color"": ""blue"", ""colorCoherence"": 0.6104999999999998, ""phase1_counterbalance"": 1, ""internal_node_id"": ""0.0-52.0-0.0"", ""correct_choice"": ""a"", ""trial_duration"": 3000, ""time_elapsed"": 195641, ""key_press"": 65, ""condition"": ""0"", ""coherent_direction"": ""up"", ""phase"": ""1.2"", ""phase2_counterbalance"": 1, ""correct"": true, ""trial_index"": 88, ""motionCoherence"": 0.4}"
A17D6BK59S31BM:3X65QVEQI2JDZJDCF3CPR5PYOVXCLY,89,1544310396703,"{""rt"": null, ""trial_type"": ""html-keyboard-response"", ""sequence"": 5, ""stimulus"": """", ""phase1_counterbalance"": 1, ""internal_node_id"": ""0.0-52.0-1.0"", ""time_elapsed"": 196844, ""key_press"": null, ""condition"": ""0"", ""uniqueId"": ""A17D6BK59S31BM:3X65QVEQI2JDZJDCF3CPR5PYOVXCLY"", ""phase2_counterbalance"": 1, ""trial_index"": 89}"
A17D6BK59S31BM:3X65QVEQI2JDZJDCF3CPR5PYOVXCLY,90,1544310398514,"{""rt"": 300.5999999586493, ""trial_type"": ""dotmotion"", ""task"": ""color"", ""uniqueId"": ""A17D6BK59S31BM:3X65QVEQI2JDZJDCF3CPR5PYOVXCLY"", ""sequence"": 5, ""coherent_color"": ""red"", ""colorCoherence"": 0.6049999999999999, ""phase1_counterbalance"": 1, ""internal_node_id"": ""0.0-53.0-0.0"", ""correct_choice"": ""l"", ""trial_duration"": 3000, ""time_elapsed"": 198655, ""key_press"": 76, ""condition"": ""0"", ""coherent_direction"": ""up"", ""phase"": ""1.2"", ""phase2_counterbalance"": 1, ""correct"": true, ""trial_index"": 90, ""motionCoherence"": 0.4}"
A17D6BK59S31BM:3X65QVEQI2JDZJDCF3CPR5PYOVXCLY,91,1544310399718,"{""rt"": null, ""trial_type"": ""html-keyboard-response"", ""sequence"": 5, ""stimulus"": """", ""phase1_counterbalance"": 1, ""internal_node_id"": ""0.0-53.0-1.0"", ""time_elapsed"": 199858, ""key_press"": null, ""condition"": ""0"", ""uniqueId"": ""A17D6BK59S31BM:3X65QVEQI2JDZJDCF3CPR5PYOVXCLY"", ""phase2_counterbalance"": 1, ""trial_index"": 91}"
A17D6BK59S31BM:3X65QVEQI2JDZJDCF3CPR5PYOVXCLY,92,1544310401532,"{""rt"": 299.29999983869493, ""trial_type"": ""dotmotion"", ""task"": ""color"", ""uniqueId"": ""A17D6BK59S31BM:3X65QVEQI2JDZJDCF3CPR5PYOVXCLY"", ""sequence"": 5, ""coherent_color"": ""blue"", ""colorCoherence"": 0.5994999999999999, ""phase1_counterbalance"": 1, ""internal_node_id"": ""0.0-54.0-0.0"", ""correct_choice"": ""a"", ""trial_duration"": 3000, ""time_elapsed"": 201673, ""key_press"": 65, ""condition"": ""0"", ""coherent_direction"": ""down"", ""phase"": ""1.2"", ""phase2_counterbalance"": 1, ""correct"": true, ""trial_index"": 92, ""motionCoherence"": 0.4}"
A17D6BK59S31BM:3X65QVEQI2JDZJDCF3CPR5PYOVXCLY,93,1544310402737,"{""rt"": null, ""trial_type"": ""html-keyboard-response"", ""sequence"": 5, ""stimulus"": """", ""phase1_counterbalance"": 1, ""internal_node_id"": ""0.0-54.0-1.0"", ""time_elapsed"": 202878, ""key_press"": null, ""condition"": ""0"", ""uniqueId"": ""A17D6BK59S31BM:3X65QVEQI2JDZJDCF3CPR5PYOVXCLY"", ""phase2_counterbalance"": 1, ""trial_index"": 93}"
A17D6BK59S31BM:3X65QVEQI2JDZJDCF3CPR5PYOVXCLY,94,1544310404785,"{""rt"": 382.1000000461936, ""trial_type"": ""dotmotion"", ""task"": ""color"", ""uniqueId"": ""A17D6BK59S31BM:3X65QVEQI2JDZJDCF3CPR5PYOVXCLY"", ""sequence"": 5, ""coherent_color"": ""blue"", ""colorCoherence"": 0.5939999999999999, ""phase1_counterbalance"": 1, ""internal_node_id"": ""0.0-55.0-0.0"", ""correct_choice"": ""a"", ""trial_duration"": 3000, ""time_elapsed"": 204925, ""key_press"": 65, ""condition"": ""0"", ""coherent_direction"": ""down"", ""phase"": ""1.2"", ""phase2_counterbalance"": 1, ""correct"": true, ""trial_index"": 94, ""motionCoherence"": 0.4}"
A17D6BK59S31BM:3X65QVEQI2JDZJDCF3CPR5PYOVXCLY,95,1544310405990,"{""rt"": null, ""trial_type"": ""html-keyboard-response"", ""sequence"": 5, ""stimulus"": """", ""phase1_counterbalance"": 1, ""internal_node_id"": ""0.0-55.0-1.0"", ""time_elapsed"": 206130, ""key_press"": null, ""condition"": ""0"", ""uniqueId"": ""A17D6BK59S31BM:3X65QVEQI2JDZJDCF3CPR5PYOVXCLY"", ""phase2_counterbalance"": 1, ""trial_index"": 95}"
A17D6BK59S31BM:3X65QVEQI2JDZJDCF3CPR5PYOVXCLY,96,1544310407916,"{""rt"": 417.90000000037253, ""trial_type"": ""dotmotion"", ""task"": ""color"", ""uniqueId"": ""A17D6BK59S31BM:3X65QVEQI2JDZJDCF3CPR5PYOVXCLY"", ""sequence"": 5, ""coherent_color"": ""blue"", ""colorCoherence"": 0.5884999999999998, ""phase1_counterbalance"": 1, ""internal_node_id"": ""0.0-56.0-0.0"", ""correct_choice"": ""a"", ""trial_duration"": 3000, ""time_elapsed"": 208057, ""key_press"": 65, ""condition"": ""0"", ""coherent_direction"": ""down"", ""phase"": ""1.2"", ""phase2_counterbalance"": 1, ""correct"": true, ""trial_index"": 96, ""motionCoherence"": 0.4}"
A17D6BK59S31BM:3X65QVEQI2JDZJDCF3CPR5PYOVXCLY,97,1544310409120,"{""rt"": null, ""trial_type"": ""html-keyboard-response"", ""sequence"": 5, ""stimulus"": """", ""phase1_counterbalance"": 1, ""internal_node_id"": ""0.0-56.0-1.0"", ""time_elapsed"": 209261, ""key_press"": null, ""condition"": ""0"", ""uniqueId"": ""A17D6BK59S31BM:3X65QVEQI2JDZJDCF3CPR5PYOVXCLY"", ""phase2_counterbalance"": 1, ""trial_index"": 97}"
A17D6BK59S31BM:3X65QVEQI2JDZJDCF3CPR5PYOVXCLY,98,1544310410910,"{""rt"": 279.8000001348555, ""trial_type"": ""dotmotion"", ""task"": ""color"", ""uniqueId"": ""A17D6BK59S31BM:3X65QVEQI2JDZJDCF3CPR5PYOVXCLY"", ""sequence"": 5, ""coherent_color"": ""red"", ""colorCoherence"": 0.5829999999999999, ""phase1_counterbalance"": 1, ""internal_node_id"": ""0.0-57.0-0.0"", ""correct_choice"": ""l"", ""trial_duration"": 3000, ""time_elapsed"": 211051, ""key_press"": 76, ""condition"": ""0"", ""coherent_direction"": ""up"", ""phase"": ""1.2"", ""phase2_counterbalance"": 1, ""correct"": true, ""trial_index"": 98, ""motionCoherence"": 0.4}"
A17D6BK59S31BM:3X65QVEQI2JDZJDCF3CPR5PYOVXCLY,99,1544310412116,"{""rt"": null, ""trial_type"": ""html-keyboard-response"", ""sequence"": 5, ""stimulus"": """", ""phase1_counterbalance"": 1, ""internal_node_id"": ""0.0-57.0-1.0"", ""time_elapsed"": 212256, ""key_press"": null, ""condition"": ""0"", ""uniqueId"": ""A17D6BK59S31BM:3X65QVEQI2JDZJDCF3CPR5PYOVXCLY"", ""phase2_counterbalance"": 1, ""trial_index"": 99}"
A17D6BK59S31BM:3X65QVEQI2JDZJDCF3CPR5PYOVXCLY,100,1544310413894,"{""rt"": 268.60000006854534, ""trial_type"": ""dotmotion"", ""task"": ""color"", ""uniqueId"": ""A17D6BK59S31BM:3X65QVEQI2JDZJDCF3CPR5PYOVXCLY"", ""sequence"": 5, ""coherent_color"": ""blue"", ""colorCoherence"": 0.5774999999999999, ""phase1_counterbalance"": 1, ""internal_node_id"": ""0.0-58.0-0.0"", ""correct_choice"": ""a"", ""trial_duration"": 3000, ""time_elapsed"": 214035, ""key_press"": 65, ""condition"": ""0"", ""coherent_direction"": ""up"", ""phase"": ""1.2"", ""phase2_counterbalance"": 1, ""correct"": true, ""trial_index"": 100, ""motionCoherence"": 0.4}"
A17D6BK59S31BM:3X65QVEQI2JDZJDCF3CPR5PYOVXCLY,101,1544310415099,"{""rt"": null, ""trial_type"": ""html-keyboard-response"", ""sequence"": 5, ""stimulus"": """", ""phase1_counterbalance"": 1, ""internal_node_id"": ""0.0-58.0-1.0"", ""time_elapsed"": 215240, ""key_press"": null, ""condition"": ""0"", ""uniqueId"": ""A17D6BK59S31BM:3X65QVEQI2JDZJDCF3CPR5PYOVXCLY"", ""phase2_counterbalance"": 1, ""trial_index"": 101}"
A17D6BK59S31BM:3X65QVEQI2JDZJDCF3CPR5PYOVXCLY,102,1544310416972,"{""rt"": 233.40000002644956, ""trial_type"": ""dotmotion"", ""task"": ""color"", ""uniqueId"": ""A17D6BK59S31BM:3X65QVEQI2JDZJDCF3CPR5PYOVXCLY"", ""sequence"": 5, ""coherent_color"": ""red"", ""colorCoherence"": 0.5719999999999998, ""phase1_counterbalance"": 1, ""internal_node_id"": ""0.0-59.0-0.0"", ""correct_choice"": ""l"", ""trial_duration"": 3000, ""time_elapsed"": 217113, ""key_press"": 76, ""condition"": ""0"", ""coherent_direction"": ""up"", ""phase"": ""1.2"", ""phase2_counterbalance"": 1, ""correct"": true, ""trial_index"": 102, ""motionCoherence"": 0.4}"
A17D6BK59S31BM:3X65QVEQI2JDZJDCF3CPR5PYOVXCLY,103,1544310418176,"{""rt"": null, ""trial_type"": ""html-keyboard-response"", ""sequence"": 5, ""stimulus"": """", ""phase1_counterbalance"": 1, ""internal_node_id"": ""0.0-59.0-1.0"", ""time_elapsed"": 218317, ""key_press"": null, ""condition"": ""0"", ""uniqueId"": ""A17D6BK59S31BM:3X65QVEQI2JDZJDCF3CPR5PYOVXCLY"", ""phase2_counterbalance"": 1, ""trial_index"": 103}"
A17D6BK59S31BM:3X65QVEQI2JDZJDCF3CPR5PYOVXCLY,104,1544310420002,"{""rt"": 317.10000010207295, ""trial_type"": ""dotmotion"", ""task"": ""color"", ""uniqueId"": ""A17D6BK59S31BM:3X65QVEQI2JDZJDCF3CPR5PYOVXCLY"", ""sequence"": 5, ""coherent_color"": ""red"", ""colorCoherence"": 0.5664999999999998, ""phase1_counterbalance"": 1, ""internal_node_id"": ""0.0-60.0-0.0"", ""correct_choice"": ""l"", ""trial_duration"": 3000, ""time_elapsed"": 220143, ""key_press"": 65, ""condition"": ""0"", ""coherent_direction"": ""up"", ""phase"": ""1.2"", ""phase2_counterbalance"": 1, ""correct"": false, ""trial_index"": 104, ""motionCoherence"": 0.4}"
A17D6BK59S31BM:3X65QVEQI2JDZJDCF3CPR5PYOVXCLY,105,1544310422957,"{""rt"": null, ""trial_type"": ""html-keyboard-response"", ""sequence"": 5, ""stimulus"": """", ""phase1_counterbalance"": 1, ""internal_node_id"": ""0.0-60.0-1.0"", ""time_elapsed"": 223098, ""key_press"": null, ""condition"": ""0"", ""uniqueId"": ""A17D6BK59S31BM:3X65QVEQI2JDZJDCF3CPR5PYOVXCLY"", ""phase2_counterbalance"": 1, ""trial_index"": 105}"
A17D6BK59S31BM:3X65QVEQI2JDZJDCF3CPR5PYOVXCLY,106,1544310424787,"{""rt"": 320.59999997727573, ""trial_type"": ""dotmotion"", ""task"": ""color"", ""uniqueId"": ""A17D6BK59S31BM:3X65QVEQI2JDZJDCF3CPR5PYOVXCLY"", ""sequence"": 5, ""coherent_color"": ""blue"", ""colorCoherence"": 0.5764999999999998, ""phase1_counterbalance"": 1, ""internal_node_id"": ""0.0-61.0-0.0"", ""correct_choice"": ""a"", ""trial_duration"": 3000, ""time_elapsed"": 224928, ""key_press"": 65, ""condition"": ""0"", ""coherent_direction"": ""up"", ""phase"": ""1.2"", ""phase2_counterbalance"": 1, ""correct"": true, ""trial_index"": 106, ""motionCoherence"": 0.4}"
A17D6BK59S31BM:3X65QVEQI2JDZJDCF3CPR5PYOVXCLY,107,1544310425992,"{""rt"": null, ""trial_type"": ""html-keyboard-response"", ""sequence"": 5, ""stimulus"": """", ""phase1_counterbalance"": 1, ""internal_node_id"": ""0.0-61.0-1.0"", ""time_elapsed"": 226133, ""key_press"": null, ""condition"": ""0"", ""uniqueId"": ""A17D6BK59S31BM:3X65QVEQI2JDZJDCF3CPR5PYOVXCLY"", ""phase2_counterbalance"": 1, ""trial_index"": 107}"
A17D6BK59S31BM:3X65QVEQI2JDZJDCF3CPR5PYOVXCLY,108,1544310427896,"{""rt"": 251.50000001303852, ""trial_type"": ""dotmotion"", ""task"": ""color"", ""uniqueId"": ""A17D6BK59S31BM:3X65QVEQI2JDZJDCF3CPR5PYOVXCLY"", ""sequence"": 5, ""coherent_color"": ""red"", ""colorCoherence"": 0.5709999999999998, ""phase1_counterbalance"": 1, ""internal_node_id"": ""0.0-62.0-0.0"", ""correct_choice"": ""l"", ""trial_duration"": 3000, ""time_elapsed"": 228037, ""key_press"": 76, ""condition"": ""0"", ""coherent_direction"": ""down"", ""phase"": ""1.2"", ""phase2_counterbalance"": 1, ""correct"": true, ""trial_index"": 108, ""motionCoherence"": 0.4}"
A17D6BK59S31BM:3X65QVEQI2JDZJDCF3CPR5PYOVXCLY,109,1544310429101,"{""rt"": null, ""trial_type"": ""html-keyboard-response"", ""sequence"": 5, ""stimulus"": """", ""phase1_counterbalance"": 1, ""internal_node_id"": ""0.0-62.0-1.0"", ""time_elapsed"": 229242, ""key_press"": null, ""condition"": ""0"", ""uniqueId"": ""A17D6BK59S31BM:3X65QVEQI2JDZJDCF3CPR5PYOVXCLY"", ""phase2_counterbalance"": 1, ""trial_index"": 109}"
A17D6BK59S31BM:3X65QVEQI2JDZJDCF3CPR5PYOVXCLY,110,1544310430888,"{""rt"": 277.5999999139458, ""trial_type"": ""dotmotion"", ""task"": ""color"", ""uniqueId"": ""A17D6BK59S31BM:3X65QVEQI2JDZJDCF3CPR5PYOVXCLY"", ""sequence"": 5, ""coherent_color"": ""blue"", ""colorCoherence"": 0.5654999999999998, ""phase1_counterbalance"": 1, ""internal_node_id"": ""0.0-63.0-0.0"", ""correct_choice"": ""a"", ""trial_duration"": 3000, ""time_elapsed"": 231029, ""key_press"": 76, ""condition"": ""0"", ""coherent_direction"": ""down"", ""phase"": ""1.2"", ""phase2_counterbalance"": 1, ""correct"": false, ""trial_index"": 110, ""motionCoherence"": 0.4}"
A17D6BK59S31BM:3X65QVEQI2JDZJDCF3CPR5PYOVXCLY,111,1544310433843,"{""rt"": null, ""trial_type"": ""html-keyboard-response"", ""sequence"": 5, ""stimulus"": """", ""phase1_counterbalance"": 1, ""internal_node_id"": ""0.0-63.0-1.0"", ""time_elapsed"": 233984, ""key_press"": null, ""condition"": ""0"", ""uniqueId"": ""A17D6BK59S31BM:3X65QVEQI2JDZJDCF3CPR5PYOVXCLY"", ""phase2_counterbalance"": 1, ""trial_index"": 111}"
A17D6BK59S31BM:3X65QVEQI2JDZJDCF3CPR5PYOVXCLY,112,1544310435710,"{""rt"": 358.0000000074506, ""trial_type"": ""dotmotion"", ""task"": ""color"", ""uniqueId"": ""A17D6BK59S31BM:3X65QVEQI2JDZJDCF3CPR5PYOVXCLY"", ""sequence"": 5, ""coherent_color"": ""red"", ""colorCoherence"": 0.5754999999999998, ""phase1_counterbalance"": 1, ""internal_node_id"": ""0.0-64.0-0.0"", ""correct_choice"": ""l"", ""trial_duration"": 3000, ""time_elapsed"": 235851, ""key_press"": 65, ""condition"": ""0"", ""coherent_direction"": ""down"", ""phase"": ""1.2"", ""phase2_counterbalance"": 1, ""correct"": false, ""trial_index"": 112, ""motionCoherence"": 0.4}"
A17D6BK59S31BM:3X65QVEQI2JDZJDCF3CPR5PYOVXCLY,113,1544310438667,"{""rt"": null, ""trial_type"": ""html-keyboard-response"", ""sequence"": 5, ""stimulus"": """", ""phase1_counterbalance"": 1, ""internal_node_id"": ""0.0-64.0-1.0"", ""time_elapsed"": 238808, ""key_press"": null, ""condition"": ""0"", ""uniqueId"": ""A17D6BK59S31BM:3X65QVEQI2JDZJDCF3CPR5PYOVXCLY"", ""phase2_counterbalance"": 1, ""trial_index"": 113}"
A17D6BK59S31BM:3X65QVEQI2JDZJDCF3CPR5PYOVXCLY,114,1544310440660,"{""rt"": 316.700000083074, ""trial_type"": ""dotmotion"", ""task"": ""color"", ""uniqueId"": ""A17D6BK59S31BM:3X65QVEQI2JDZJDCF3CPR5PYOVXCLY"", ""sequence"": 5, ""coherent_color"": ""blue"", ""colorCoherence"": 0.5854999999999998, ""phase1_counterbalance"": 1, ""internal_node_id"": ""0.0-65.0-0.0"", ""correct_choice"": ""a"", ""trial_duration"": 3000, ""time_elapsed"": 240800, ""key_press"": 76, ""condition"": ""0"", ""coherent_direction"": ""up"", ""phase"": ""1.2"", ""phase2_counterbalance"": 1, ""correct"": false, ""trial_index"": 114, ""motionCoherence"": 0.4}"
A17D6BK59S31BM:3X65QVEQI2JDZJDCF3CPR5PYOVXCLY,115,1544310443615,"{""rt"": null, ""trial_type"": ""html-keyboard-response"", ""sequence"": 5, ""stimulus"": """", ""phase1_counterbalance"": 1, ""internal_node_id"": ""0.0-65.0-1.0"", ""time_elapsed"": 243756, ""key_press"": null, ""condition"": ""0"", ""uniqueId"": ""A17D6BK59S31BM:3X65QVEQI2JDZJDCF3CPR5PYOVXCLY"", ""phase2_counterbalance"": 1, ""trial_index"": 115}"
A17D6BK59S31BM:3X65QVEQI2JDZJDCF3CPR5PYOVXCLY,116,1544310445448,"{""rt"": 321.69999997131526, ""trial_type"": ""dotmotion"", ""task"": ""color"", ""uniqueId"": ""A17D6BK59S31BM:3X65QVEQI2JDZJDCF3CPR5PYOVXCLY"", ""sequence"": 5, ""coherent_color"": ""red"", ""colorCoherence"": 0.5954999999999998, ""phase1_counterbalance"": 1, ""internal_node_id"": ""0.0-66.0-0.0"", ""correct_choice"": ""l"", ""trial_duration"": 3000, ""time_elapsed"": 245589, ""key_press"": 65, ""condition"": ""0"", ""coherent_direction"": ""down"", ""phase"": ""1.2"", ""phase2_counterbalance"": 1, ""correct"": false, ""trial_index"": 116, ""motionCoherence"": 0.4}"
A17D6BK59S31BM:3X65QVEQI2JDZJDCF3CPR5PYOVXCLY,117,1544310448404,"{""rt"": null, ""trial_type"": ""html-keyboard-response"", ""sequence"": 5, ""stimulus"": """", ""phase1_counterbalance"": 1, ""internal_node_id"": ""0.0-66.0-1.0"", ""time_elapsed"": 248545, ""key_press"": null, ""condition"": ""0"", ""uniqueId"": ""A17D6BK59S31BM:3X65QVEQI2JDZJDCF3CPR5PYOVXCLY"", ""phase2_counterbalance"": 1, ""trial_index"": 117}"
A17D6BK59S31BM:3X65QVEQI2JDZJDCF3CPR5PYOVXCLY,118,1544310450390,"{""rt"": 475.6000000052154, ""trial_type"": ""dotmotion"", ""task"": ""color"", ""uniqueId"": ""A17D6BK59S31BM:3X65QVEQI2JDZJDCF3CPR5PYOVXCLY"", ""sequence"": 5, ""coherent_color"": ""blue"", ""colorCoherence"": 0.6054999999999998, ""phase1_counterbalance"": 1, ""internal_node_id"": ""0.0-67.0-0.0"", ""correct_choice"": ""a"", ""trial_duration"": 3000, ""time_elapsed"": 250531, ""key_press"": 65, ""condition"": ""0"", ""coherent_direction"": ""down"", ""phase"": ""1.2"", ""phase2_counterbalance"": 1, ""correct"": true, ""trial_index"": 118, ""motionCoherence"": 0.4}"
A17D6BK59S31BM:3X65QVEQI2JDZJDCF3CPR5PYOVXCLY,119,1544310451595,"{""rt"": null, ""trial_type"": ""html-keyboard-response"", ""sequence"": 5, ""stimulus"": """", ""phase1_counterbalance"": 1, ""internal_node_id"": ""0.0-67.0-1.0"", ""time_elapsed"": 251736, ""key_press"": null, ""condition"": ""0"", ""uniqueId"": ""A17D6BK59S31BM:3X65QVEQI2JDZJDCF3CPR5PYOVXCLY"", ""phase2_counterbalance"": 1, ""trial_index"": 119}"
A17D6BK59S31BM:3X65QVEQI2JDZJDCF3CPR5PYOVXCLY,120,1544310457862,"{""rt"": 334.80000006966293, ""trial_type"": ""dotmotion"", ""task"": ""color"", ""uniqueId"": ""A17D6BK59S31BM:3X65QVEQI2JDZJDCF3CPR5PYOVXCLY"", ""sequence"": 5, ""coherent_color"": ""blue"", ""colorCoherence"": 0.5999999999999998, ""phase1_counterbalance"": 1, ""internal_node_id"": ""0.0-68.0-0.0"", ""correct_choice"": ""a"", ""trial_duration"": 3000, ""time_elapsed"": 258003, ""key_press"": 65, ""condition"": ""0"", ""coherent_direction"": ""up"", ""phase"": ""1.2"", ""phase2_counterbalance"": 1, ""correct"": true, ""trial_index"": 120, ""motionCoherence"": 0.4}"
A17D6BK59S31BM:3X65QVEQI2JDZJDCF3CPR5PYOVXCLY,121,1544310459068,"{""rt"": null, ""trial_type"": ""html-keyboard-response"", ""sequence"": 5, ""stimulus"": """", ""phase1_counterbalance"": 1, ""internal_node_id"": ""0.0-68.0-1.0"", ""time_elapsed"": 259209, ""key_press"": null, ""condition"": ""0"", ""uniqueId"": ""A17D6BK59S31BM:3X65QVEQI2JDZJDCF3CPR5PYOVXCLY"", ""phase2_counterbalance"": 1, ""trial_index"": 121}"
A17D6BK59S31BM:3X65QVEQI2JDZJDCF3CPR5PYOVXCLY,122,1544310460914,"{""rt"": 336.5999998059124, ""trial_type"": ""dotmotion"", ""task"": ""color"", ""uniqueId"": ""A17D6BK59S31BM:3X65QVEQI2JDZJDCF3CPR5PYOVXCLY"", ""sequence"": 5, ""coherent_color"": ""blue"", ""colorCoherence"": 0.5944999999999998, ""phase1_counterbalance"": 1, ""internal_node_id"": ""0.0-69.0-0.0"", ""correct_choice"": ""a"", ""trial_duration"": 3000, ""time_elapsed"": 261055, ""key_press"": 65, ""condition"": ""0"", ""coherent_direction"": ""down"", ""phase"": ""1.2"", ""phase2_counterbalance"": 1, ""correct"": true, ""trial_index"": 122, ""motionCoherence"": 0.4}"
A17D6BK59S31BM:3X65QVEQI2JDZJDCF3CPR5PYOVXCLY,123,1544310462119,"{""rt"": null, ""trial_type"": ""html-keyboard-response"", ""sequence"": 5, ""stimulus"": """", ""phase1_counterbalance"": 1, ""internal_node_id"": ""0.0-69.0-1.0"", ""time_elapsed"": 262260, ""key_press"": null, ""condition"": ""0"", ""uniqueId"": ""A17D6BK59S31BM:3X65QVEQI2JDZJDCF3CPR5PYOVXCLY"", ""phase2_counterbalance"": 1, ""trial_index"": 123}"
A17D6BK59S31BM:3X65QVEQI2JDZJDCF3CPR5PYOVXCLY,124,1544310463926,"{""rt"": 296.7000000644475, ""trial_type"": ""dotmotion"", ""task"": ""color"", ""uniqueId"": ""A17D6BK59S31BM:3X65QVEQI2JDZJDCF3CPR5PYOVXCLY"", ""sequence"": 5, ""coherent_color"": ""red"", ""colorCoherence"": 0.5889999999999997, ""phase1_counterbalance"": 1, ""internal_node_id"": ""0.0-70.0-0.0"", ""correct_choice"": ""l"", ""trial_duration"": 3000, ""time_elapsed"": 264067, ""key_press"": 76, ""condition"": ""0"", ""coherent_direction"": ""up"", ""phase"": ""1.2"", ""phase2_counterbalance"": 1, ""correct"": true, ""trial_index"": 124, ""motionCoherence"": 0.4}"
A17D6BK59S31BM:3X65QVEQI2JDZJDCF3CPR5PYOVXCLY,125,1544310465131,"{""rt"": null, ""trial_type"": ""html-keyboard-response"", ""sequence"": 5, ""stimulus"": """", ""phase1_counterbalance"": 1, ""internal_node_id"": ""0.0-70.0-1.0"", ""time_elapsed"": 265272, ""key_press"": null, ""condition"": ""0"", ""uniqueId"": ""A17D6BK59S31BM:3X65QVEQI2JDZJDCF3CPR5PYOVXCLY"", ""phase2_counterbalance"": 1, ""trial_index"": 125}"
A17D6BK59S31BM:3X65QVEQI2JDZJDCF3CPR5PYOVXCLY,126,1544310467074,"{""rt"": 301.9000000786036, ""trial_type"": ""dotmotion"", ""task"": ""color"", ""uniqueId"": ""A17D6BK59S31BM:3X65QVEQI2JDZJDCF3CPR5PYOVXCLY"", ""sequence"": 5, ""coherent_color"": ""blue"", ""colorCoherence"": 0.5834999999999998, ""phase1_counterbalance"": 1, ""internal_node_id"": ""0.0-71.0-0.0"", ""correct_choice"": ""a"", ""trial_duration"": 3000, ""time_elapsed"": 267215, ""key_press"": 65, ""condition"": ""0"", ""coherent_direction"": ""down"", ""phase"": ""1.2"", ""phase2_counterbalance"": 1, ""correct"": true, ""trial_index"": 126, ""motionCoherence"": 0.4}"
A17D6BK59S31BM:3X65QVEQI2JDZJDCF3CPR5PYOVXCLY,127,1544310468281,"{""rt"": null, ""trial_type"": ""html-keyboard-response"", ""sequence"": 5, ""stimulus"": """", ""phase1_counterbalance"": 1, ""internal_node_id"": ""0.0-71.0-1.0"", ""time_elapsed"": 268421, ""key_press"": null, ""condition"": ""0"", ""uniqueId"": ""A17D6BK59S31BM:3X65QVEQI2JDZJDCF3CPR5PYOVXCLY"", ""phase2_counterbalance"": 1, ""trial_index"": 127}"
A17D6BK59S31BM:3X65QVEQI2JDZJDCF3CPR5PYOVXCLY,128,1544310470045,"{""rt"": 255.50000020302832, ""trial_type"": ""dotmotion"", ""task"": ""color"", ""uniqueId"": ""A17D6BK59S31BM:3X65QVEQI2JDZJDCF3CPR5PYOVXCLY"", ""sequence"": 5, ""coherent_color"": ""red"", ""colorCoherence"": 0.5779999999999997, ""phase1_counterbalance"": 1, ""internal_node_id"": ""0.0-72.0-0.0"", ""correct_choice"": ""l"", ""trial_duration"": 3000, ""time_elapsed"": 270186, ""key_press"": 76, ""condition"": ""0"", ""coherent_direction"": ""up"", ""phase"": ""1.2"", ""phase2_counterbalance"": 1, ""correct"": true, ""trial_index"": 128, ""motionCoherence"": 0.4}"
A17D6BK59S31BM:3X65QVEQI2JDZJDCF3CPR5PYOVXCLY,129,1544310471249,"{""rt"": null, ""trial_type"": ""html-keyboard-response"", ""sequence"": 5, ""stimulus"": """", ""phase1_counterbalance"": 1, ""internal_node_id"": ""0.0-72.0-1.0"", ""time_elapsed"": 271390, ""key_press"": null, ""condition"": ""0"", ""uniqueId"": ""A17D6BK59S31BM:3X65QVEQI2JDZJDCF3CPR5PYOVXCLY"", ""phase2_counterbalance"": 1, ""trial_index"": 129}"
A17D6BK59S31BM:3X65QVEQI2JDZJDCF3CPR5PYOVXCLY,130,1544310473147,"{""rt"": 387.39999989047647, ""trial_type"": ""dotmotion"", ""task"": ""color"", ""uniqueId"": ""A17D6BK59S31BM:3X65QVEQI2JDZJDCF3CPR5PYOVXCLY"", ""sequence"": 5, ""coherent_color"": ""red"", ""colorCoherence"": 0.5724999999999998, ""phase1_counterbalance"": 1, ""internal_node_id"": ""0.0-73.0-0.0"", ""correct_choice"": ""l"", ""trial_duration"": 3000, ""time_elapsed"": 273288, ""key_press"": 65, ""condition"": ""0"", ""coherent_direction"": ""down"", ""phase"": ""1.2"", ""phase2_counterbalance"": 1, ""correct"": false, ""trial_index"": 130, ""motionCoherence"": 0.4}"
A17D6BK59S31BM:3X65QVEQI2JDZJDCF3CPR5PYOVXCLY,131,1544310476102,"{""rt"": null, ""trial_type"": ""html-keyboard-response"", ""sequence"": 5, ""stimulus"": """", ""phase1_counterbalance"": 1, ""internal_node_id"": ""0.0-73.0-1.0"", ""time_elapsed"": 276243, ""key_press"": null, ""condition"": ""0"", ""uniqueId"": ""A17D6BK59S31BM:3X65QVEQI2JDZJDCF3CPR5PYOVXCLY"", ""phase2_counterbalance"": 1, ""trial_index"": 131}"
A17D6BK59S31BM:3X65QVEQI2JDZJDCF3CPR5PYOVXCLY,132,1544310478069,"{""rt"": 324.5000001043081, ""trial_type"": ""dotmotion"", ""task"": ""color"", ""uniqueId"": ""A17D6BK59S31BM:3X65QVEQI2JDZJDCF3CPR5PYOVXCLY"", ""sequence"": 5, ""coherent_color"": ""blue"", ""colorCoherence"": 0.5824999999999998, ""phase1_counterbalance"": 1, ""internal_node_id"": ""0.0-74.0-0.0"", ""correct_choice"": ""a"", ""trial_duration"": 3000, ""time_elapsed"": 278210, ""key_press"": 65, ""condition"": ""0"", ""coherent_direction"": ""down"", ""phase"": ""1.2"", ""phase2_counterbalance"": 1, ""correct"": true, ""trial_index"": 132, ""motionCoherence"": 0.4}"
A17D6BK59S31BM:3X65QVEQI2JDZJDCF3CPR5PYOVXCLY,133,1544310479275,"{""rt"": null, ""trial_type"": ""html-keyboard-response"", ""sequence"": 5, ""stimulus"": """", ""phase1_counterbalance"": 1, ""internal_node_id"": ""0.0-74.0-1.0"", ""time_elapsed"": 279415, ""key_press"": null, ""condition"": ""0"", ""uniqueId"": ""A17D6BK59S31BM:3X65QVEQI2JDZJDCF3CPR5PYOVXCLY"", ""phase2_counterbalance"": 1, ""trial_index"": 133}"
A17D6BK59S31BM:3X65QVEQI2JDZJDCF3CPR5PYOVXCLY,134,1544310481125,"{""rt"": 341.19999990798533, ""trial_type"": ""dotmotion"", ""task"": ""color"", ""uniqueId"": ""A17D6BK59S31BM:3X65QVEQI2JDZJDCF3CPR5PYOVXCLY"", ""sequence"": 5, ""coherent_color"": ""red"", ""colorCoherence"": 0.5769999999999997, ""phase1_counterbalance"": 1, ""internal_node_id"": ""0.0-75.0-0.0"", ""correct_choice"": ""l"", ""trial_duration"": 3000, ""time_elapsed"": 281266, ""key_press"": 76, ""condition"": ""0"", ""coherent_direction"": ""up"", ""phase"": ""1.2"", ""phase2_counterbalance"": 1, ""correct"": true, ""trial_index"": 134, ""motionCoherence"": 0.4}"
A17D6BK59S31BM:3X65QVEQI2JDZJDCF3CPR5PYOVXCLY,135,1544310482328,"{""rt"": null, ""trial_type"": ""html-keyboard-response"", ""sequence"": 5, ""stimulus"": """", ""phase1_counterbalance"": 1, ""internal_node_id"": ""0.0-75.0-1.0"", ""time_elapsed"": 282469, ""key_press"": null, ""condition"": ""0"", ""uniqueId"": ""A17D6BK59S31BM:3X65QVEQI2JDZJDCF3CPR5PYOVXCLY"", ""phase2_counterbalance"": 1, ""trial_index"": 135}"
A17D6BK59S31BM:3X65QVEQI2JDZJDCF3CPR5PYOVXCLY,136,1544310484164,"{""rt"": 320.0000000651926, ""trial_type"": ""dotmotion"", ""task"": ""color"", ""uniqueId"": ""A17D6BK59S31BM:3X65QVEQI2JDZJDCF3CPR5PYOVXCLY"", ""sequence"": 5, ""coherent_color"": ""red"", ""colorCoherence"": 0.5714999999999998, ""phase1_counterbalance"": 1, ""internal_node_id"": ""0.0-76.0-0.0"", ""correct_choice"": ""l"", ""trial_duration"": 3000, ""time_elapsed"": 284304, ""key_press"": 76, ""condition"": ""0"", ""coherent_direction"": ""down"", ""phase"": ""1.2"", ""phase2_counterbalance"": 1, ""correct"": true, ""trial_index"": 136, ""motionCoherence"": 0.4}"
A17D6BK59S31BM:3X65QVEQI2JDZJDCF3CPR5PYOVXCLY,137,1544310485370,"{""rt"": null, ""trial_type"": ""html-keyboard-response"", ""sequence"": 5, ""stimulus"": """", ""phase1_counterbalance"": 1, ""internal_node_id"": ""0.0-76.0-1.0"", ""time_elapsed"": 285511, ""key_press"": null, ""condition"": ""0"", ""uniqueId"": ""A17D6BK59S31BM:3X65QVEQI2JDZJDCF3CPR5PYOVXCLY"", ""phase2_counterbalance"": 1, ""trial_index"": 137}"
A17D6BK59S31BM:3X65QVEQI2JDZJDCF3CPR5PYOVXCLY,138,1544310487154,"{""rt"": 275.20000003278255, ""trial_type"": ""dotmotion"", ""task"": ""color"", ""uniqueId"": ""A17D6BK59S31BM:3X65QVEQI2JDZJDCF3CPR5PYOVXCLY"", ""sequence"": 5, ""coherent_color"": ""red"", ""colorCoherence"": 0.5659999999999997, ""phase1_counterbalance"": 1, ""internal_node_id"": ""0.0-77.0-0.0"", ""correct_choice"": ""l"", ""trial_duration"": 3000, ""time_elapsed"": 287295, ""key_press"": 76, ""condition"": ""0"", ""coherent_direction"": ""down"", ""phase"": ""1.2"", ""phase2_counterbalance"": 1, ""correct"": true, ""trial_index"": 138, ""motionCoherence"": 0.4}"
A17D6BK59S31BM:3X65QVEQI2JDZJDCF3CPR5PYOVXCLY,139,1544310488360,"{""rt"": null, ""trial_type"": ""html-keyboard-response"", ""sequence"": 5, ""stimulus"": """", ""phase1_counterbalance"": 1, ""internal_node_id"": ""0.0-77.0-1.0"", ""time_elapsed"": 288501, ""key_press"": null, ""condition"": ""0"", ""uniqueId"": ""A17D6BK59S31BM:3X65QVEQI2JDZJDCF3CPR5PYOVXCLY"", ""phase2_counterbalance"": 1, ""trial_index"": 139}"
A17D6BK59S31BM:3X65QVEQI2JDZJDCF3CPR5PYOVXCLY,140,1544310490313,"{""rt"": 279.59999977611005, ""trial_type"": ""dotmotion"", ""task"": ""color"", ""uniqueId"": ""A17D6BK59S31BM:3X65QVEQI2JDZJDCF3CPR5PYOVXCLY"", ""sequence"": 5, ""coherent_color"": ""blue"", ""colorCoherence"": 0.5604999999999998, ""phase1_counterbalance"": 1, ""internal_node_id"": ""0.0-78.0-0.0"", ""correct_choice"": ""a"", ""trial_duration"": 3000, ""time_elapsed"": 290454, ""key_press"": 65, ""condition"": ""0"", ""coherent_direction"": ""down"", ""phase"": ""1.2"", ""phase2_counterbalance"": 1, ""correct"": true, ""trial_index"": 140, ""motionCoherence"": 0.4}"
A17D6BK59S31BM:3X65QVEQI2JDZJDCF3CPR5PYOVXCLY,141,1544310491517,"{""rt"": null, ""trial_type"": ""html-keyboard-response"", ""sequence"": 5, ""stimulus"": """", ""phase1_counterbalance"": 1, ""internal_node_id"": ""0.0-78.0-1.0"", ""time_elapsed"": 291657, ""key_press"": null, ""condition"": ""0"", ""uniqueId"": ""A17D6BK59S31BM:3X65QVEQI2JDZJDCF3CPR5PYOVXCLY"", ""phase2_counterbalance"": 1, ""trial_index"": 141}"
A17D6BK59S31BM:3X65QVEQI2JDZJDCF3CPR5PYOVXCLY,142,1544310493424,"{""rt"": 396.90000005066395, ""trial_type"": ""dotmotion"", ""task"": ""color"", ""uniqueId"": ""A17D6BK59S31BM:3X65QVEQI2JDZJDCF3CPR5PYOVXCLY"", ""sequence"": 5, ""coherent_color"": ""blue"", ""colorCoherence"": 0.5549999999999997, ""phase1_counterbalance"": 1, ""internal_node_id"": ""0.0-79.0-0.0"", ""correct_choice"": ""a"", ""trial_duration"": 3000, ""time_elapsed"": 293565, ""key_press"": 65, ""condition"": ""0"", ""coherent_direction"": ""up"", ""phase"": ""1.2"", ""phase2_counterbalance"": 1, ""correct"": true, ""trial_index"": 142, ""motionCoherence"": 0.4}"
A17D6BK59S31BM:3X65QVEQI2JDZJDCF3CPR5PYOVXCLY,143,1544310494630,"{""rt"": null, ""trial_type"": ""html-keyboard-response"", ""sequence"": 5, ""stimulus"": """", ""phase1_counterbalance"": 1, ""internal_node_id"": ""0.0-79.0-1.0"", ""time_elapsed"": 294771, ""key_press"": null, ""condition"": ""0"", ""uniqueId"": ""A17D6BK59S31BM:3X65QVEQI2JDZJDCF3CPR5PYOVXCLY"", ""phase2_counterbalance"": 1, ""trial_index"": 143}"
A17D6BK59S31BM:3X65QVEQI2JDZJDCF3CPR5PYOVXCLY,144,1544310496410,"{""rt"": 271.2000000756234, ""trial_type"": ""dotmotion"", ""task"": ""color"", ""uniqueId"": ""A17D6BK59S31BM:3X65QVEQI2JDZJDCF3CPR5PYOVXCLY"", ""sequence"": 5, ""coherent_color"": ""blue"", ""colorCoherence"": 0.5494999999999998, ""phase1_counterbalance"": 1, ""internal_node_id"": ""0.0-80.0-0.0"", ""correct_choice"": ""a"", ""trial_duration"": 3000, ""time_elapsed"": 296551, ""key_press"": 76, ""condition"": ""0"", ""coherent_direction"": ""down"", ""phase"": ""1.2"", ""phase2_counterbalance"": 1, ""correct"": false, ""trial_index"": 144, ""motionCoherence"": 0.4}"
A17D6BK59S31BM:3X65QVEQI2JDZJDCF3CPR5PYOVXCLY,145,1544310499365,"{""rt"": null, ""trial_type"": ""html-keyboard-response"", ""sequence"": 5, ""stimulus"": """", ""phase1_counterbalance"": 1, ""internal_node_id"": ""0.0-80.0-1.0"", ""time_elapsed"": 299506, ""key_press"": null, ""condition"": ""0"", ""uniqueId"": ""A17D6BK59S31BM:3X65QVEQI2JDZJDCF3CPR5PYOVXCLY"", ""phase2_counterbalance"": 1, ""trial_index"": 145}"
A17D6BK59S31BM:3X65QVEQI2JDZJDCF3CPR5PYOVXCLY,146,1544310501312,"{""rt"": 302.29999986477196, ""trial_type"": ""dotmotion"", ""task"": ""color"", ""uniqueId"": ""A17D6BK59S31BM:3X65QVEQI2JDZJDCF3CPR5PYOVXCLY"", ""sequence"": 5, ""coherent_color"": ""blue"", ""colorCoherence"": 0.5594999999999998, ""phase1_counterbalance"": 1, ""internal_node_id"": ""0.0-81.0-0.0"", ""correct_choice"": ""a"", ""trial_duration"": 3000, ""time_elapsed"": 301453, ""key_press"": 65, ""condition"": ""0"", ""coherent_direction"": ""up"", ""phase"": ""1.2"", ""phase2_counterbalance"": 1, ""correct"": true, ""trial_index"": 146, ""motionCoherence"": 0.4}"
A17D6BK59S31BM:3X65QVEQI2JDZJDCF3CPR5PYOVXCLY,147,1544310502519,"{""rt"": null, ""trial_type"": ""html-keyboard-response"", ""sequence"": 5, ""stimulus"": """", ""phase1_counterbalance"": 1, ""internal_node_id"": ""0.0-81.0-1.0"", ""time_elapsed"": 302660, ""key_press"": null, ""condition"": ""0"", ""uniqueId"": ""A17D6BK59S31BM:3X65QVEQI2JDZJDCF3CPR5PYOVXCLY"", ""phase2_counterbalance"": 1, ""trial_index"": 147}"
A17D6BK59S31BM:3X65QVEQI2JDZJDCF3CPR5PYOVXCLY,148,1544310504280,"{""rt"": 254.10000002011657, ""trial_type"": ""dotmotion"", ""task"": ""color"", ""uniqueId"": ""A17D6BK59S31BM:3X65QVEQI2JDZJDCF3CPR5PYOVXCLY"", ""sequence"": 5, ""coherent_color"": ""red"", ""colorCoherence"": 0.5539999999999997, ""phase1_counterbalance"": 1, ""internal_node_id"": ""0.0-82.0-0.0"", ""correct_choice"": ""l"", ""trial_duration"": 3000, ""time_elapsed"": 304421, ""key_press"": 76, ""condition"": ""0"", ""coherent_direction"": ""up"", ""phase"": ""1.2"", ""phase2_counterbalance"": 1, ""correct"": true, ""trial_index"": 148, ""motionCoherence"": 0.4}"
A17D6BK59S31BM:3X65QVEQI2JDZJDCF3CPR5PYOVXCLY,149,1544310505486,"{""rt"": null, ""trial_type"": ""html-keyboard-response"", ""sequence"": 5, ""stimulus"": """", ""phase1_counterbalance"": 1, ""internal_node_id"": ""0.0-82.0-1.0"", ""time_elapsed"": 305627, ""key_press"": null, ""condition"": ""0"", ""uniqueId"": ""A17D6BK59S31BM:3X65QVEQI2JDZJDCF3CPR5PYOVXCLY"", ""phase2_counterbalance"": 1, ""trial_index"": 149}"
A17D6BK59S31BM:3X65QVEQI2JDZJDCF3CPR5PYOVXCLY,150,1544310507258,"{""rt"": 263.50000011734664, ""trial_type"": ""dotmotion"", ""task"": ""color"", ""uniqueId"": ""A17D6BK59S31BM:3X65QVEQI2JDZJDCF3CPR5PYOVXCLY"", ""sequence"": 5, ""coherent_color"": ""blue"", ""colorCoherence"": 0.5484999999999998, ""phase1_counterbalance"": 1, ""internal_node_id"": ""0.0-83.0-0.0"", ""correct_choice"": ""a"", ""trial_duration"": 3000, ""time_elapsed"": 307399, ""key_press"": 76, ""condition"": ""0"", ""coherent_direction"": ""up"", ""phase"": ""1.2"", ""phase2_counterbalance"": 1, ""correct"": false, ""trial_index"": 150, ""motionCoherence"": 0.4}"
A17D6BK59S31BM:3X65QVEQI2JDZJDCF3CPR5PYOVXCLY,151,1544310510213,"{""rt"": null, ""trial_type"": ""html-keyboard-response"", ""sequence"": 5, ""stimulus"": """", ""phase1_counterbalance"": 1, ""internal_node_id"": ""0.0-83.0-1.0"", ""time_elapsed"": 310354, ""key_press"": null, ""condition"": ""0"", ""uniqueId"": ""A17D6BK59S31BM:3X65QVEQI2JDZJDCF3CPR5PYOVXCLY"", ""phase2_counterbalance"": 1, ""trial_index"": 151}"
A17D6BK59S31BM:3X65QVEQI2JDZJDCF3CPR5PYOVXCLY,152,1544310512128,"{""rt"": 267.299999948591, ""trial_type"": ""dotmotion"", ""task"": ""color"", ""uniqueId"": ""A17D6BK59S31BM:3X65QVEQI2JDZJDCF3CPR5PYOVXCLY"", ""sequence"": 5, ""coherent_color"": ""blue"", ""colorCoherence"": 0.5584999999999998, ""phase1_counterbalance"": 1, ""internal_node_id"": ""0.0-84.0-0.0"", ""correct_choice"": ""a"", ""trial_duration"": 3000, ""time_elapsed"": 312269, ""key_press"": 65, ""condition"": ""0"", ""coherent_direction"": ""down"", ""phase"": ""1.2"", ""phase2_counterbalance"": 1, ""correct"": true, ""trial_index"": 152, ""motionCoherence"": 0.4}"
A17D6BK59S31BM:3X65QVEQI2JDZJDCF3CPR5PYOVXCLY,153,1544310513333,"{""rt"": null, ""trial_type"": ""html-keyboard-response"", ""sequence"": 5, ""stimulus"": """", ""phase1_counterbalance"": 1, ""internal_node_id"": ""0.0-84.0-1.0"", ""time_elapsed"": 313474, ""key_press"": null, ""condition"": ""0"", ""uniqueId"": ""A17D6BK59S31BM:3X65QVEQI2JDZJDCF3CPR5PYOVXCLY"", ""phase2_counterbalance"": 1, ""trial_index"": 153}"
A17D6BK59S31BM:3X65QVEQI2JDZJDCF3CPR5PYOVXCLY,154,1544310515172,"{""rt"": 329.399999929592, ""trial_type"": ""dotmotion"", ""task"": ""color"", ""uniqueId"": ""A17D6BK59S31BM:3X65QVEQI2JDZJDCF3CPR5PYOVXCLY"", ""sequence"": 5, ""coherent_color"": ""red"", ""colorCoherence"": 0.5529999999999997, ""phase1_counterbalance"": 1, ""internal_node_id"": ""0.0-85.0-0.0"", ""correct_choice"": ""l"", ""trial_duration"": 3000, ""time_elapsed"": 315313, ""key_press"": 76, ""condition"": ""0"", ""coherent_direction"": ""down"", ""phase"": ""1.2"", ""phase2_counterbalance"": 1, ""correct"": true, ""trial_index"": 154, ""motionCoherence"": 0.4}"
A17D6BK59S31BM:3X65QVEQI2JDZJDCF3CPR5PYOVXCLY,155,1544310516377,"{""rt"": null, ""trial_type"": ""html-keyboard-response"", ""sequence"": 5, ""stimulus"": """", ""phase1_counterbalance"": 1, ""internal_node_id"": ""0.0-85.0-1.0"", ""time_elapsed"": 316518, ""key_press"": null, ""condition"": ""0"", ""uniqueId"": ""A17D6BK59S31BM:3X65QVEQI2JDZJDCF3CPR5PYOVXCLY"", ""phase2_counterbalance"": 1, ""trial_index"": 155}"
A17D6BK59S31BM:3X65QVEQI2JDZJDCF3CPR5PYOVXCLY,156,1544310518171,"{""rt"": 285.60000006109476, ""trial_type"": ""dotmotion"", ""task"": ""color"", ""uniqueId"": ""A17D6BK59S31BM:3X65QVEQI2JDZJDCF3CPR5PYOVXCLY"", ""sequence"": 5, ""coherent_color"": ""blue"", ""colorCoherence"": 0.5474999999999998, ""phase1_counterbalance"": 1, ""internal_node_id"": ""0.0-86.0-0.0"", ""correct_choice"": ""a"", ""trial_duration"": 3000, ""time_elapsed"": 318312, ""key_press"": 76, ""condition"": ""0"", ""coherent_direction"": ""down"", ""phase"": ""1.2"", ""phase2_counterbalance"": 1, ""correct"": false, ""trial_index"": 156, ""motionCoherence"": 0.4}"
A17D6BK59S31BM:3X65QVEQI2JDZJDCF3CPR5PYOVXCLY,157,1544310521126,"{""rt"": null, ""trial_type"": ""html-keyboard-response"", ""sequence"": 5, ""stimulus"": """", ""phase1_counterbalance"": 1, ""internal_node_id"": ""0.0-86.0-1.0"", ""time_elapsed"": 321267, ""key_press"": null, ""condition"": ""0"", ""uniqueId"": ""A17D6BK59S31BM:3X65QVEQI2JDZJDCF3CPR5PYOVXCLY"", ""phase2_counterbalance"": 1, ""trial_index"": 157}"
A17D6BK59S31BM:3X65QVEQI2JDZJDCF3CPR5PYOVXCLY,158,1544310523025,"{""rt"": 258.6000000592321, ""trial_type"": ""dotmotion"", ""task"": ""color"", ""uniqueId"": ""A17D6BK59S31BM:3X65QVEQI2JDZJDCF3CPR5PYOVXCLY"", ""sequence"": 5, ""coherent_color"": ""red"", ""colorCoherence"": 0.5574999999999998, ""phase1_counterbalance"": 1, ""internal_node_id"": ""0.0-87.0-0.0"", ""correct_choice"": ""l"", ""trial_duration"": 3000, ""time_elapsed"": 323165, ""key_press"": 76, ""condition"": ""0"", ""coherent_direction"": ""up"", ""phase"": ""1.2"", ""phase2_counterbalance"": 1, ""correct"": true, ""trial_index"": 158, ""motionCoherence"": 0.4}"
A17D6BK59S31BM:3X65QVEQI2JDZJDCF3CPR5PYOVXCLY,159,1544310524230,"{""rt"": null, ""trial_type"": ""html-keyboard-response"", ""sequence"": 5, ""stimulus"": """", ""phase1_counterbalance"": 1, ""internal_node_id"": ""0.0-87.0-1.0"", ""time_elapsed"": 324371, ""key_press"": null, ""condition"": ""0"", ""uniqueId"": ""A17D6BK59S31BM:3X65QVEQI2JDZJDCF3CPR5PYOVXCLY"", ""phase2_counterbalance"": 1, ""trial_index"": 159}"
A17D6BK59S31BM:3X65QVEQI2JDZJDCF3CPR5PYOVXCLY,160,1544310525990,"{""rt"": 251.30000011995435, ""trial_type"": ""dotmotion"", ""task"": ""color"", ""uniqueId"": ""A17D6BK59S31BM:3X65QVEQI2JDZJDCF3CPR5PYOVXCLY"", ""sequence"": 5, ""coherent_color"": ""blue"", ""colorCoherence"": 0.5519999999999997, ""phase1_counterbalance"": 1, ""internal_node_id"": ""0.0-88.0-0.0"", ""correct_choice"": ""a"", ""trial_duration"": 3000, ""time_elapsed"": 326131, ""key_press"": 65, ""condition"": ""0"", ""coherent_direction"": ""down"", ""phase"": ""1.2"", ""phase2_counterbalance"": 1, ""correct"": true, ""trial_index"": 160, ""motionCoherence"": 0.4}"
A17D6BK59S31BM:3X65QVEQI2JDZJDCF3CPR5PYOVXCLY,161,1544310527194,"{""rt"": null, ""trial_type"": ""html-keyboard-response"", ""sequence"": 5, ""stimulus"": """", ""phase1_counterbalance"": 1, ""internal_node_id"": ""0.0-88.0-1.0"", ""time_elapsed"": 327334, ""key_press"": null, ""condition"": ""0"", ""uniqueId"": ""A17D6BK59S31BM:3X65QVEQI2JDZJDCF3CPR5PYOVXCLY"", ""phase2_counterbalance"": 1, ""trial_index"": 161}"
A17D6BK59S31BM:3X65QVEQI2JDZJDCF3CPR5PYOVXCLY,162,1544310528958,"{""rt"": 253.1999999191612, ""trial_type"": ""dotmotion"", ""task"": ""color"", ""uniqueId"": ""A17D6BK59S31BM:3X65QVEQI2JDZJDCF3CPR5PYOVXCLY"", ""sequence"": 5, ""coherent_color"": ""red"", ""colorCoherence"": 0.5464999999999998, ""phase1_counterbalance"": 1, ""internal_node_id"": ""0.0-89.0-0.0"", ""correct_choice"": ""l"", ""trial_duration"": 3000, ""time_elapsed"": 329099, ""key_press"": 76, ""condition"": ""0"", ""coherent_direction"": ""up"", ""phase"": ""1.2"", ""phase2_counterbalance"": 1, ""correct"": true, ""trial_index"": 162, ""motionCoherence"": 0.4}"
A17D6BK59S31BM:3X65QVEQI2JDZJDCF3CPR5PYOVXCLY,163,1544310530162,"{""rt"": null, ""trial_type"": ""html-keyboard-response"", ""sequence"": 5, ""stimulus"": """", ""phase1_counterbalance"": 1, ""internal_node_id"": ""0.0-89.0-1.0"", ""time_elapsed"": 330302, ""key_press"": null, ""condition"": ""0"", ""uniqueId"": ""A17D6BK59S31BM:3X65QVEQI2JDZJDCF3CPR5PYOVXCLY"", ""phase2_counterbalance"": 1, ""trial_index"": 163}"
A17D6BK59S31BM:3X65QVEQI2JDZJDCF3CPR5PYOVXCLY,164,1544310531958,"{""rt"": 287.1000000741333, ""trial_type"": ""dotmotion"", ""task"": ""color"", ""uniqueId"": ""A17D6BK59S31BM:3X65QVEQI2JDZJDCF3CPR5PYOVXCLY"", ""sequence"": 5, ""coherent_color"": ""blue"", ""colorCoherence"": 0.5409999999999998, ""phase1_counterbalance"": 1, ""internal_node_id"": ""0.0-90.0-0.0"", ""correct_choice"": ""a"", ""trial_duration"": 3000, ""time_elapsed"": 332099, ""key_press"": 65, ""condition"": ""0"", ""coherent_direction"": ""down"", ""phase"": ""1.2"", ""phase2_counterbalance"": 1, ""correct"": true, ""trial_index"": 164, ""motionCoherence"": 0.4}"
A17D6BK59S31BM:3X65QVEQI2JDZJDCF3CPR5PYOVXCLY,165,1544310533164,"{""rt"": null, ""trial_type"": ""html-keyboard-response"", ""sequence"": 5, ""stimulus"": """", ""phase1_counterbalance"": 1, ""internal_node_id"": ""0.0-90.0-1.0"", ""time_elapsed"": 333305, ""key_press"": null, ""condition"": ""0"", ""uniqueId"": ""A17D6BK59S31BM:3X65QVEQI2JDZJDCF3CPR5PYOVXCLY"", ""phase2_counterbalance"": 1, ""trial_index"": 165}"
A17D6BK59S31BM:3X65QVEQI2JDZJDCF3CPR5PYOVXCLY,166,1544314178868,"{""rt"": 3645701, ""trial_type"": ""instructions"", ""view_history"": ""[{\""page_index\"":0,\""viewing_time\"":3645700}]"", ""sequence"": 5, ""phase1_counterbalance"": 1, ""internal_node_id"": ""0.0-91.0"", ""time_elapsed"": 3979008, ""condition"": ""0"", ""uniqueId"": ""A17D6BK59S31BM:3X65QVEQI2JDZJDCF3CPR5PYOVXCLY"", ""phase2_counterbalance"": 1, ""trial_index"": 166}"
A17D6BK59S31BM:3X65QVEQI2JDZJDCF3CPR5PYOVXCLY,167,1544314182092,"{""rt"": 576.4999999664724, ""trial_type"": ""dotmotion"", ""task"": ""motion"", ""uniqueId"": ""A17D6BK59S31BM:3X65QVEQI2JDZJDCF3CPR5PYOVXCLY"", ""sequence"": 5, ""coherent_color"": ""blue"", ""colorCoherence"": 0.5354999999999998, ""phase1_counterbalance"": 1, ""internal_node_id"": ""0.0-92.0-0.0"", ""correct_choice"": ""l"", ""trial_duration"": 3000, ""time_elapsed"": 3982232, ""key_press"": 76, ""condition"": ""0"", ""coherent_direction"": ""down"", ""phase"": ""1.1"", ""phase2_counterbalance"": 1, ""correct"": true, ""trial_index"": 167, ""motionCoherence"": 0.4}"
A17D6BK59S31BM:3X65QVEQI2JDZJDCF3CPR5PYOVXCLY,168,1544314183295,"{""rt"": null, ""trial_type"": ""html-keyboard-response"", ""sequence"": 5, ""stimulus"": """", ""phase1_counterbalance"": 1, ""internal_node_id"": ""0.0-92.0-1.0"", ""time_elapsed"": 3983436, ""key_press"": null, ""condition"": ""0"", ""uniqueId"": ""A17D6BK59S31BM:3X65QVEQI2JDZJDCF3CPR5PYOVXCLY"", ""phase2_counterbalance"": 1, ""trial_index"": 168}"
A17D6BK59S31BM:3X65QVEQI2JDZJDCF3CPR5PYOVXCLY,169,1544314185210,"{""rt"": 404.6000000089407, ""trial_type"": ""dotmotion"", ""task"": ""motion"", ""uniqueId"": ""A17D6BK59S31BM:3X65QVEQI2JDZJDCF3CPR5PYOVXCLY"", ""sequence"": 5, ""coherent_color"": ""red"", ""colorCoherence"": 0.5354999999999998, ""phase1_counterbalance"": 1, ""internal_node_id"": ""0.0-93.0-0.0"", ""correct_choice"": ""l"", ""trial_duration"": 3000, ""time_elapsed"": 3985351, ""key_press"": 76, ""condition"": ""0"", ""coherent_direction"": ""down"", ""phase"": ""1.1"", ""phase2_counterbalance"": 1, ""correct"": true, ""trial_index"": 169, ""motionCoherence"": 0.389}"
A17D6BK59S31BM:3X65QVEQI2JDZJDCF3CPR5PYOVXCLY,170,1544314186414,"{""rt"": null, ""trial_type"": ""html-keyboard-response"", ""sequence"": 5, ""stimulus"": """", ""phase1_counterbalance"": 1, ""internal_node_id"": ""0.0-93.0-1.0"", ""time_elapsed"": 3986555, ""key_press"": null, ""condition"": ""0"", ""uniqueId"": ""A17D6BK59S31BM:3X65QVEQI2JDZJDCF3CPR5PYOVXCLY"", ""phase2_counterbalance"": 1, ""trial_index"": 170}"
A17D6BK59S31BM:3X65QVEQI2JDZJDCF3CPR5PYOVXCLY,171,1544314188221,"{""rt"": 296.40000010840595, ""trial_type"": ""dotmotion"", ""task"": ""motion"", ""uniqueId"": ""A17D6BK59S31BM:3X65QVEQI2JDZJDCF3CPR5PYOVXCLY"", ""sequence"": 5, ""coherent_color"": ""red"", ""colorCoherence"": 0.5354999999999998, ""phase1_counterbalance"": 1, ""internal_node_id"": ""0.0-94.0-0.0"", ""correct_choice"": ""l"", ""trial_duration"": 3000, ""time_elapsed"": 3988362, ""key_press"": 76, ""condition"": ""0"", ""coherent_direction"": ""down"", ""phase"": ""1.1"", ""phase2_counterbalance"": 1, ""correct"": true, ""trial_index"": 171, ""motionCoherence"": 0.378}"
A17D6BK59S31BM:3X65QVEQI2JDZJDCF3CPR5PYOVXCLY,172,1544314189428,"{""rt"": null, ""trial_type"": ""html-keyboard-response"", ""sequence"": 5, ""stimulus"": """", ""phase1_counterbalance"": 1, ""internal_node_id"": ""0.0-94.0-1.0"", ""time_elapsed"": 3989569, ""key_press"": null, ""condition"": ""0"", ""uniqueId"": ""A17D6BK59S31BM:3X65QVEQI2JDZJDCF3CPR5PYOVXCLY"", ""phase2_counterbalance"": 1, ""trial_index"": 172}"
A17D6BK59S31BM:3X65QVEQI2JDZJDCF3CPR5PYOVXCLY,173,1544314191261,"{""rt"": 322.2999998833984, ""trial_type"": ""dotmotion"", ""task"": ""motion"", ""uniqueId"": ""A17D6BK59S31BM:3X65QVEQI2JDZJDCF3CPR5PYOVXCLY"", ""sequence"": 5, ""coherent_color"": ""red"", ""colorCoherence"": 0.5354999999999998, ""phase1_counterbalance"": 1, ""internal_node_id"": ""0.0-95.0-0.0"", ""correct_choice"": ""a"", ""trial_duration"": 3000, ""time_elapsed"": 3991401, ""key_press"": 76, ""condition"": ""0"", ""coherent_direction"": ""up"", ""phase"": ""1.1"", ""phase2_counterbalance"": 1, ""correct"": false, ""trial_index"": 173, ""motionCoherence"": 0.367}"
A17D6BK59S31BM:3X65QVEQI2JDZJDCF3CPR5PYOVXCLY,174,1544314194216,"{""rt"": null, ""trial_type"": ""html-keyboard-response"", ""sequence"": 5, ""stimulus"": """", ""phase1_counterbalance"": 1, ""internal_node_id"": ""0.0-95.0-1.0"", ""time_elapsed"": 3994357, ""key_press"": null, ""condition"": ""0"", ""uniqueId"": ""A17D6BK59S31BM:3X65QVEQI2JDZJDCF3CPR5PYOVXCLY"", ""phase2_counterbalance"": 1, ""trial_index"": 174}"
A17D6BK59S31BM:3X65QVEQI2JDZJDCF3CPR5PYOVXCLY,175,1544314196258,"{""rt"": 399.100000038743, ""trial_type"": ""dotmotion"", ""task"": ""motion"", ""uniqueId"": ""A17D6BK59S31BM:3X65QVEQI2JDZJDCF3CPR5PYOVXCLY"", ""sequence"": 5, ""coherent_color"": ""blue"", ""colorCoherence"": 0.5354999999999998, ""phase1_counterbalance"": 1, ""internal_node_id"": ""0.0-96.0-0.0"", ""correct_choice"": ""l"", ""trial_duration"": 3000, ""time_elapsed"": 3996399, ""key_press"": 65, ""condition"": ""0"", ""coherent_direction"": ""down"", ""phase"": ""1.1"", ""phase2_counterbalance"": 1, ""correct"": false, ""trial_index"": 175, ""motionCoherence"": 0.387}"
A17D6BK59S31BM:3X65QVEQI2JDZJDCF3CPR5PYOVXCLY,176,1544314199214,"{""rt"": null, ""trial_type"": ""html-keyboard-response"", ""sequence"": 5, ""stimulus"": """", ""phase1_counterbalance"": 1, ""internal_node_id"": ""0.0-96.0-1.0"", ""time_elapsed"": 3999355, ""key_press"": null, ""condition"": ""0"", ""uniqueId"": ""A17D6BK59S31BM:3X65QVEQI2JDZJDCF3CPR5PYOVXCLY"", ""phase2_counterbalance"": 1, ""trial_index"": 176}"
A17D6BK59S31BM:3X65QVEQI2JDZJDCF3CPR5PYOVXCLY,177,1544314201097,"{""rt"": 372.39999999292195, ""trial_type"": ""dotmotion"", ""task"": ""motion"", ""uniqueId"": ""A17D6BK59S31BM:3X65QVEQI2JDZJDCF3CPR5PYOVXCLY"", ""sequence"": 5, ""coherent_color"": ""red"", ""colorCoherence"": 0.5354999999999998, ""phase1_counterbalance"": 1, ""internal_node_id"": ""0.0-97.0-0.0"", ""correct_choice"": ""a"", ""trial_duration"": 3000, ""time_elapsed"": 4001238, ""key_press"": 65, ""condition"": ""0"", ""coherent_direction"": ""up"", ""phase"": ""1.1"", ""phase2_counterbalance"": 1, ""correct"": true, ""trial_index"": 177, ""motionCoherence"": 0.40700000000000003}"
A17D6BK59S31BM:3X65QVEQI2JDZJDCF3CPR5PYOVXCLY,178,1544314202304,"{""rt"": null, ""trial_type"": ""html-keyboard-response"", ""sequence"": 5, ""stimulus"": """", ""phase1_counterbalance"": 1, ""internal_node_id"": ""0.0-97.0-1.0"", ""time_elapsed"": 4002445, ""key_press"": null, ""condition"": ""0"", ""uniqueId"": ""A17D6BK59S31BM:3X65QVEQI2JDZJDCF3CPR5PYOVXCLY"", ""phase2_counterbalance"": 1, ""trial_index"": 178}"
A17D6BK59S31BM:3X65QVEQI2JDZJDCF3CPR5PYOVXCLY,179,1544314204095,"{""rt"": 282.6999998651445, ""trial_type"": ""dotmotion"", ""task"": ""motion"", ""uniqueId"": ""A17D6BK59S31BM:3X65QVEQI2JDZJDCF3CPR5PYOVXCLY"", ""sequence"": 5, ""coherent_color"": ""blue"", ""colorCoherence"": 0.5354999999999998, ""phase1_counterbalance"": 1, ""internal_node_id"": ""0.0-98.0-0.0"", ""correct_choice"": ""l"", ""trial_duration"": 3000, ""time_elapsed"": 4004236, ""key_press"": 76, ""condition"": ""0"", ""coherent_direction"": ""down"", ""phase"": ""1.1"", ""phase2_counterbalance"": 1, ""correct"": true, ""trial_index"": 179, ""motionCoherence"": 0.396}"
A17D6BK59S31BM:3X65QVEQI2JDZJDCF3CPR5PYOVXCLY,180,1544314205302,"{""rt"": null, ""trial_type"": ""html-keyboard-response"", ""sequence"": 5, ""stimulus"": """", ""phase1_counterbalance"": 1, ""internal_node_id"": ""0.0-98.0-1.0"", ""time_elapsed"": 4005443, ""key_press"": null, ""condition"": ""0"", ""uniqueId"": ""A17D6BK59S31BM:3X65QVEQI2JDZJDCF3CPR5PYOVXCLY"", ""phase2_counterbalance"": 1, ""trial_index"": 180}"
A17D6BK59S31BM:3X65QVEQI2JDZJDCF3CPR5PYOVXCLY,181,1544314207231,"{""rt"": 277.00000000186265, ""trial_type"": ""dotmotion"", ""task"": ""motion"", ""uniqueId"": ""A17D6BK59S31BM:3X65QVEQI2JDZJDCF3CPR5PYOVXCLY"", ""sequence"": 5, ""coherent_color"": ""red"", ""colorCoherence"": 0.5354999999999998, ""phase1_counterbalance"": 1, ""internal_node_id"": ""0.0-99.0-0.0"", ""correct_choice"": ""a"", ""trial_duration"": 3000, ""time_elapsed"": 4007372, ""key_press"": 65, ""condition"": ""0"", ""coherent_direction"": ""up"", ""phase"": ""1.1"", ""phase2_counterbalance"": 1, ""correct"": true, ""trial_index"": 181, ""motionCoherence"": 0.385}"
A17D6BK59S31BM:3X65QVEQI2JDZJDCF3CPR5PYOVXCLY,182,1544314208435,"{""rt"": null, ""trial_type"": ""html-keyboard-response"", ""sequence"": 5, ""stimulus"": """", ""phase1_counterbalance"": 1, ""internal_node_id"": ""0.0-99.0-1.0"", ""time_elapsed"": 4008576, ""key_press"": null, ""condition"": ""0"", ""uniqueId"": ""A17D6BK59S31BM:3X65QVEQI2JDZJDCF3CPR5PYOVXCLY"", ""phase2_counterbalance"": 1, ""trial_index"": 182}"
A17D6BK59S31BM:3X65QVEQI2JDZJDCF3CPR5PYOVXCLY,183,1544314210242,"{""rt"": 297.49999986961484, ""trial_type"": ""dotmotion"", ""task"": ""motion"", ""uniqueId"": ""A17D6BK59S31BM:3X65QVEQI2JDZJDCF3CPR5PYOVXCLY"", ""sequence"": 5, ""coherent_color"": ""red"", ""colorCoherence"": 0.5354999999999998, ""phase1_counterbalance"": 1, ""internal_node_id"": ""0.0-100.0-0.0"", ""correct_choice"": ""a"", ""trial_duration"": 3000, ""time_elapsed"": 4010382, ""key_press"": 65, ""condition"": ""0"", ""coherent_direction"": ""up"", ""phase"": ""1.1"", ""phase2_counterbalance"": 1, ""correct"": true, ""trial_index"": 183, ""motionCoherence"": 0.374}"
A17D6BK59S31BM:3X65QVEQI2JDZJDCF3CPR5PYOVXCLY,184,1544314211447,"{""rt"": null, ""trial_type"": ""html-keyboard-response"", ""sequence"": 5, ""stimulus"": """", ""phase1_counterbalance"": 1, ""internal_node_id"": ""0.0-100.0-1.0"", ""time_elapsed"": 4011588, ""key_press"": null, ""condition"": ""0"", ""uniqueId"": ""A17D6BK59S31BM:3X65QVEQI2JDZJDCF3CPR5PYOVXCLY"", ""phase2_counterbalance"": 1, ""trial_index"": 184}"
A17D6BK59S31BM:3X65QVEQI2JDZJDCF3CPR5PYOVXCLY,185,1544314213306,"{""rt"": 337.90000015869737, ""trial_type"": ""dotmotion"", ""task"": ""motion"", ""uniqueId"": ""A17D6BK59S31BM:3X65QVEQI2JDZJDCF3CPR5PYOVXCLY"", ""sequence"": 5, ""coherent_color"": ""red"", ""colorCoherence"": 0.5354999999999998, ""phase1_counterbalance"": 1, ""internal_node_id"": ""0.0-101.0-0.0"", ""correct_choice"": ""l"", ""trial_duration"": 3000, ""time_elapsed"": 4013447, ""key_press"": 76, ""condition"": ""0"", ""coherent_direction"": ""down"", ""phase"": ""1.1"", ""phase2_counterbalance"": 1, ""correct"": true, ""trial_index"": 185, ""motionCoherence"": 0.363}"
A17D6BK59S31BM:3X65QVEQI2JDZJDCF3CPR5PYOVXCLY,186,1544314214509,"{""rt"": null, ""trial_type"": ""html-keyboard-response"", ""sequence"": 5, ""stimulus"": """", ""phase1_counterbalance"": 1, ""internal_node_id"": ""0.0-101.0-1.0"", ""time_elapsed"": 4014650, ""key_press"": null, ""condition"": ""0"", ""uniqueId"": ""A17D6BK59S31BM:3X65QVEQI2JDZJDCF3CPR5PYOVXCLY"", ""phase2_counterbalance"": 1, ""trial_index"": 186}"
A17D6BK59S31BM:3X65QVEQI2JDZJDCF3CPR5PYOVXCLY,187,1544314216329,"{""rt"": 308.9000000618398, ""trial_type"": ""dotmotion"", ""task"": ""motion"", ""uniqueId"": ""A17D6BK59S31BM:3X65QVEQI2JDZJDCF3CPR5PYOVXCLY"", ""sequence"": 5, ""coherent_color"": ""blue"", ""colorCoherence"": 0.5354999999999998, ""phase1_counterbalance"": 1, ""internal_node_id"": ""0.0-102.0-0.0"", ""correct_choice"": ""l"", ""trial_duration"": 3000, ""time_elapsed"": 4016470, ""key_press"": 65, ""condition"": ""0"", ""coherent_direction"": ""down"", ""phase"": ""1.1"", ""phase2_counterbalance"": 1, ""correct"": false, ""trial_index"": 187, ""motionCoherence"": 0.352}"
A17D6BK59S31BM:3X65QVEQI2JDZJDCF3CPR5PYOVXCLY,188,1544314219285,"{""rt"": null, ""trial_type"": ""html-keyboard-response"", ""sequence"": 5, ""stimulus"": """", ""phase1_counterbalance"": 1, ""internal_node_id"": ""0.0-102.0-1.0"", ""time_elapsed"": 4019425, ""key_press"": null, ""condition"": ""0"", ""uniqueId"": ""A17D6BK59S31BM:3X65QVEQI2JDZJDCF3CPR5PYOVXCLY"", ""phase2_counterbalance"": 1, ""trial_index"": 188}"
